aX,aY,aZ,gX,gY,gZ
1.079,-2.077,1.225,-175.293,36.255,314.270
1.125,-2.281,1.349,-164.917,23.682,307.922
1.099,-2.412,1.328,-153.076,17.090,298.645
1.015,-2.479,1.204,-138.733,11.047,284.668
0.937,-2.478,1.046,-122.192,0.549,266.479
0.861,-2.455,0.890,-103.943,-14.404,247.559
0.855,-2.388,0.751,-87.280,-29.785,228.821
0.860,-2.364,0.676,-74.280,-40.588,207.214
0.847,-2.323,0.618,-65.186,-42.480,183.533
0.773,-2.332,0.592,-58.533,-35.278,159.485
0.714,-2.270,0.519,-52.795,-20.935,134.827
0.591,-2.279,0.531,-45.532,-6.287,110.474
0.545,-2.181,0.459,-37.170,7.263,87.219
0.512,-2.042,0.515,-24.414,12.451,66.895
0.428,-1.746,0.605,-12.878,17.883,47.546
0.396,-1.529,0.629,-6.958,29.724,30.151
0.320,-1.147,0.687,-8.545,37.231,22.644
0.312,-1.023,0.571,-8.423,37.964,18.005
0.309,-0.991,0.601,-11.902,28.625,20.874
0.370,-0.963,0.550,-20.447,15.259,34.180
0.446,-1.013,0.599,-27.344,-0.488,49.194
0.485,-1.102,0.512,-35.461,-8.789,58.716
0.521,-1.181,0.395,-41.992,-14.465,61.035
0.584,-1.271,0.371,-40.771,-23.254,57.007
0.636,-1.322,0.387,-34.912,-26.672,48.218
0.643,-1.346,0.381,-27.649,-21.973,36.865
0.627,-1.297,0.383,-20.569,-13.062,23.560
0.595,-1.213,0.404,-13.428,-3.540,10.498
0.556,-1.086,0.444,-8.362,5.188,-0.183
0.520,-0.960,0.486,-5.493,11.475,-6.470
0.486,-0.868,0.518,-4.944,13.977,-9.338
0.447,-0.800,0.535,-7.019,13.733,-10.132
0.417,-0.732,0.532,-10.010,10.254,-9.888
0.437,-0.725,0.536,-12.878,4.822,-9.338
0.391,-0.766,0.552,-15.442,-1.587,-8.057
0.416,-0.802,0.504,-17.273,-5.676,-6.104
0.425,-0.808,0.478,-16.418,-9.094,-2.747
0.422,-0.863,0.483,-11.414,-13.245,-4.028
0.443,-0.820,0.448,-8.301,-12.939,-4.944
0.457,-0.794,0.447,-4.395,-11.353,-5.676
0.466,-0.768,0.476,-1.831,-8.911,-5.066
0.458,-0.730,0.459,-1.892,-3.967,-3.540
0.447,-0.720,0.463,-2.563,0.610,-2.625
0.445,-0.719,0.482,-3.662,3.479,-2.014
0.440,-0.713,0.479,-4.517,5.371,-1.099
0.437,-0.733,0.471,-4.150,5.249,0.366
0.436,-0.751,0.467,-2.991,2.747,1.831
0.445,-0.777,0.467,-1.587,-0.183,2.563
0.453,-0.801,0.467,0.000,-2.502,2.502
0.456,-0.808,0.455,1.343,-3.052,1.587
0.456,-0.789,0.443,2.014,-3.113,-0.488
0.465,-0.772,0.449,2.808,-2.319,-2.808
0.474,-0.739,0.453,2.686,-0.427,-4.150
0.482,-0.722,0.462,2.075,2.380,-4.700
0.475,-0.724,0.475,1.343,5.188,-3.601
0.463,-0.734,0.480,0.366,7.629,-1.587
0.453,-0.746,0.492,0.305,9.033,-0.610
0.438,-0.752,0.500,0.732,9.705,0.000
0.433,-0.751,0.509,1.343,9.338,0.122
0.434,-0.751,0.530,1.770,7.751,0.366
0.431,-0.743,0.533,1.465,6.287,0.732
0.438,-0.750,0.527,0.916,4.456,0.549
0.434,-0.756,0.523,0.671,1.526,0.366
0.439,-0.754,0.502,0.305,-1.709,0.061
0.455,-0.760,0.504,0.061,-4.395,-0.671
0.466,-0.767,0.505,-0.610,-4.944,-1.404
0.470,-0.766,0.488,-1.587,-3.113,-2.258
0.475,-0.778,0.489,-1.526,-1.038,-2.808
0.472,-0.783,0.500,-0.854,0.671,-2.686
0.465,-0.780,0.502,0.427,2.747,-1.892
0.452,-0.773,0.517,1.953,4.272,-1.831
0.447,-0.753,0.529,2.869,5.432,-2.258
0.449,-0.745,0.541,2.869,6.042,-2.319
0.432,-0.745,0.553,2.747,5.310,-1.282
0.423,-0.750,0.542,2.869,4.211,-0.305
0.422,-0.759,0.534,3.662,2.075,-0.366
0.433,-0.760,0.528,4.822,-0.671,-0.061
0.437,-0.756,0.514,5.554,-2.930,-0.305
0.442,-0.742,0.502,5.371,-4.333,-0.854
0.449,-0.740,0.500,4.272,-4.822,-1.709
0.450,-0.741,0.503,2.075,-5.127,-2.502
0.455,-0.747,0.496,0.061,-4.456,-2.869
0.456,-0.764,0.501,-0.916,-3.662,-2.991
0.452,-0.768,0.490,-0.793,-2.747,-2.502
0.454,-0.769,0.482,0.793,-2.686,-1.587
0.462,-0.769,0.492,2.625,-2.869,-0.366
0.465,-0.771,0.494,3.052,-2.563,0.549
0.462,-0.779,0.486,2.258,-1.587,0.793
0.451,-0.780,0.480,1.160,-0.732,0.427
0.451,-0.787,0.484,0.061,-0.549,-0.977
0.448,-0.783,0.482,-0.549,-0.671,-2.563
0.443,-0.770,0.483,-0.610,-1.526,-3.845
0.457,-0.757,0.480,-0.061,-3.052,-4.150
0.459,-0.768,0.479,1.099,-4.272,-3.540
0.453,-0.788,0.473,1.404,-4.822,-3.845
0.461,-0.778,0.469,-0.061,-4.700,-2.563
0.462,-0.764,0.454,-0.610,-4.089,-2.136
0.460,-0.768,0.463,-0.427,-3.052,-2.014
0.456,-0.768,0.470,0.244,-1.282,-2.258
0.454,-0.762,0.470,0.793,1.404,-2.441
0.445,-0.765,0.482,1.648,2.563,-2.197
0.435,-0.765,0.496,2.014,2.319,-1.587
0.428,-0.760,0.488,2.502,1.343,-1.404
0.437,-0.754,0.486,3.418,-0.061,-1.892
0.441,-0.753,0.481,3.784,-1.526,-1.709
0.442,-0.748,0.465,3.784,-2.747,-0.854
0.462,-0.761,0.476,3.967,-3.845,-0.061
0.465,-0.764,0.466,3.723,-4.089,0.305
0.470,-0.764,0.450,2.930,-3.296,0.427
0.472,-0.778,0.460,1.648,-2.808,0.122
0.473,-0.787,0.454,-0.244,-1.587,-0.488
0.466,-0.795,0.455,-1.831,-0.549,-1.160
0.462,-0.801,0.453,-2.686,0.061,-1.465
0.454,-0.805,0.458,-2.136,-0.061,-1.587
0.450,-0.802,0.464,-1.160,-0.488,-1.587
0.448,-0.788,0.465,0.488,-0.305,-2.014
0.450,-0.784,0.479,1.892,-0.244,-2.319
0.443,-0.783,0.490,2.747,-0.549,-1.953
0.438,-0.779,0.486,3.296,-0.793,-1.221
1.601,-1.494,0.925,-95.337,63.049,517.944
1.676,-1.749,0.960,-117.065,80.017,500.671
1.736,-1.990,0.979,-127.625,92.896,473.877
1.835,-2.235,0.985,-117.798,91.309,450.867
1.857,-2.376,1.001,-84.656,68.176,431.091
1.764,-2.317,0.946,-44.495,34.485,413.452
1.691,-2.230,0.922,-14.221,3.113,393.066
1.581,-2.095,1.012,-11.719,-17.639,370.911
1.467,-1.999,1.012,-43.457,-20.935,342.957
1.367,-1.936,0.939,-92.529,-17.944,304.871
1.303,-1.962,0.943,-135.071,-24.719,261.353
1.278,-1.995,0.923,-161.987,-36.804,224.854
0.666,-1.973,0.862,-171.509,-52.368,198.730
1.145,-2.013,0.723,-161.011,-66.040,178.589
1.318,-1.792,0.696,-141.296,-64.697,174.072
1.222,-2.141,0.531,-114.441,-56.396,144.714
1.112,-1.948,0.582,-102.356,-41.809,134.888
1.132,-1.812,0.492,-86.792,-20.447,140.015
1.026,-1.759,0.561,-70.129,-5.676,139.404
1.003,-1.742,0.584,-56.335,7.446,130.676
0.961,-1.789,0.570,-46.692,21.912,116.516
0.883,-1.826,0.552,-37.659,29.114,104.492
0.839,-1.804,0.561,-27.283,27.893,93.018
0.762,-1.719,0.491,-17.212,23.132,78.796
0.743,-1.591,0.474,-9.705,14.648,60.974
0.741,-1.451,0.490,-6.714,5.859,43.701
0.725,-1.309,0.533,-10.620,3.418,29.419
0.640,-1.205,0.464,-21.301,6.592,16.907
0.603,-1.093,0.420,-31.433,8.057,6.042
0.617,-1.069,0.479,-33.997,4.028,-1.770
0.630,-1.051,0.487,-34.790,3.357,-2.625
0.605,-1.012,0.464,-33.691,2.625,3.357
0.605,-1.020,0.480,-28.503,-0.183,8.728
0.616,-1.025,0.527,-21.790,-2.625,10.254
0.619,-0.986,0.485,-17.334,-2.319,7.812
0.612,-1.005,0.465,-13.367,-3.174,2.380
0.662,-0.966,0.443,-11.902,-6.958,-2.991
0.672,-0.931,0.431,-11.047,-10.559,-7.629
0.716,-0.892,0.395,-10.986,-11.230,-11.902
0.750,-0.865,0.414,-8.972,-11.780,-13.245
0.742,-0.816,0.429,-7.141,-7.629,-13.306
0.721,-0.785,0.397,-6.775,0.000,-13.916
0.716,-0.786,0.416,-4.639,4.822,-14.709
0.703,-0.765,0.446,-1.343,6.714,-14.282
0.686,-0.725,0.454,1.282,10.010,-15.259
0.667,-0.700,0.467,3.845,12.695,-17.761
0.648,-0.671,0.485,5.737,13.184,-19.653
0.633,-0.628,0.491,7.019,11.841,-20.508
0.619,-0.578,0.498,6.775,9.338,-21.240
0.610,-0.538,0.509,3.845,6.775,-22.644
0.611,-0.526,0.512,-0.061,5.005,-24.048
0.599,-0.524,0.516,-4.211,3.906,-24.292
0.600,-0.519,0.509,-6.775,3.052,-23.865
0.602,-0.531,0.515,-7.324,2.014,-22.522
0.598,-0.537,0.504,-7.385,1.160,-20.020
0.599,-0.539,0.496,-6.592,-0.061,-18.005
0.614,-0.556,0.486,-5.493,-1.404,-16.541
0.605,-0.550,0.465,-4.089,-1.953,-14.893
0.611,-0.539,0.458,-2.808,-2.319,-13.916
0.613,-0.543,0.465,-2.441,-1.404,-13.794
0.605,-0.513,0.469,-3.296,0.244,-13.550
0.602,-0.515,0.480,-3.784,2.502,-14.404
0.592,-0.533,0.489,-3.296,3.479,-13.428
0.581,-0.530,0.492,-2.136,3.235,-10.864
0.581,-0.539,0.489,-0.122,2.747,-9.827
0.583,-0.529,0.484,1.526,1.343,-9.644
0.591,-0.523,0.478,2.075,-0.305,-8.789
0.607,-0.543,0.475,1.587,-1.953,-7.690
0.601,-0.541,0.465,-0.366,-2.869,-6.714
0.613,-0.550,0.452,-2.563,-2.197,-6.775
0.618,-0.569,0.451,-4.639,-0.793,-7.080
0.621,-0.583,0.445,-5.554,0.671,-6.714
0.614,-0.594,0.443,-4.883,2.197,-5.432
0.619,-0.596,0.451,-2.747,3.357,-4.395
0.620,-0.602,0.466,-0.427,4.639,-3.296
0.607,-0.590,0.471,0.793,5.371,-2.075
0.594,-0.576,0.473,1.221,5.493,-2.075
0.599,-0.584,0.476,0.732,5.066,-2.686
0.596,-0.593,0.484,-0.122,3.784,-1.770
0.592,-0.589,0.485,-0.854,3.113,-0.732
0.593,-0.608,0.491,-1.160,2.930,0.000
0.590,-0.602,0.492,-1.648,2.563,1.099
0.591,-0.595,0.490,-1.465,2.686,1.831
0.601,-0.630,0.492,-0.732,2.258,2.808
0.605,-0.650,0.490,-0.366,1.038,5.310
0.617,-0.669,0.490,0.000,0.427,5.554
0.620,-0.692,0.484,0.244,0.549,4.333
0.614,-0.681,0.477,-0.183,0.488,3.906
0.627,-0.691,0.485,0.061,1.160,2.930
0.626,-0.712,0.486,0.549,1.953,2.014
0.616,-0.719,0.484,0.977,2.319,2.014
0.616,-0.718,0.486,2.014,2.197,0.671
0.624,-0.706,0.490,3.601,2.502,-1.038
0.625,-0.696,0.489,4.517,2.747,-1.526
0.618,-0.685,0.484,4.761,2.441,-1.221
0.620,-0.679,0.485,4.578,2.380,-1.587
0.621,-0.684,0.492,3.906,2.686,-2.136
0.618,-0.685,0.486,2.869,2.991,-2.319
0.611,-0.678,0.488,2.380,2.808,-2.319
0.612,-0.669,0.499,2.197,2.319,-2.808
0.608,-0.674,0.501,2.258,2.136,-2.991
0.603,-0.671,0.501,2.686,1.099,-2.380
0.609,-0.670,0.501,3.357,-0.061,-2.014
0.614,-0.688,0.492,4.028,-1.160,-2.136
0.611,-0.682,0.485,4.639,-2.625,-1.587
0.623,-0.681,0.477,5.066,-2.808,-2.136
0.625,-0.684,0.468,5.188,-2.197,-2.930
0.625,-0.673,0.466,4.761,-1.831,-3.723
0.627,-0.661,0.468,4.211,-0.610,-4.944
0.626,-0.648,0.473,3.540,1.160,-6.226
0.621,-0.643,0.474,3.235,2.686,-6.042
0.616,-0.637,0.476,3.906,3.418,-4.517
0.610,-0.645,0.464,4.883,3.174,-2.991
0.624,-0.681,0.459,7.202,1.892,-2.502
0.640,-0.726,0.448,10.803,0.793,-1.099
0.657,-0.757,0.423,15.808,1.038,0.305
0.665,-0.772,0.397,23.071,2.625,1.099
0.670,-0.771,0.389,31.738,4.761,2.441
0.673,-0.746,0.391,39.673,7.446,4.150
1.248,-1.326,1.146,-59.875,125.366,370.667
1.324,-1.260,1.203,-54.565,114.807,370.300
1.457,-1.227,1.245,-54.993,104.004,369.080
1.567,-1.222,1.305,-59.875,89.722,368.042
1.693,-1.330,1.391,-65.369,71.655,362.854
1.744,-1.414,1.474,-73.669,51.453,352.356
1.795,-1.499,1.453,-83.679,34.424,335.327
1.767,-1.687,1.301,-90.210,20.813,315.918
1.648,-1.844,1.176,-90.881,3.113,298.706
1.529,-1.937,0.995,-85.510,-8.911,277.161
1.428,-2.005,0.882,-74.097,-16.602,248.291
1.356,-2.022,0.827,-57.434,-17.456,216.858
1.294,-1.953,0.830,-38.330,-5.981,191.467
1.153,-2.112,0.715,-18.982,10.986,158.325
1.058,-1.972,0.727,-8.179,28.625,128.357
0.918,-1.852,0.754,5.493,40.833,109.985
0.739,-1.733,0.644,17.395,50.110,92.163
0.693,-1.580,0.695,29.907,45.044,71.594
0.675,-1.414,0.714,37.720,36.560,48.096
0.666,-1.227,0.729,39.185,29.480,27.161
0.653,-1.043,0.727,37.292,24.719,13.977
0.578,-0.884,0.687,34.180,21.790,8.240
0.546,-0.776,0.649,31.006,17.700,9.521
0.546,-0.702,0.594,26.794,11.047,16.602
0.560,-0.674,0.534,20.325,4.028,25.818
0.589,-0.690,0.482,9.460,-2.563,32.410
0.621,-0.743,0.444,-3.418,-7.446,35.522
0.671,-0.760,0.435,-13.672,-10.742,36.804
0.726,-0.852,0.454,-17.090,-11.536,38.208
0.736,-0.969,0.433,-17.212,-7.202,32.349
0.764,-0.944,0.445,-17.395,-2.930,29.602
0.777,-0.929,0.499,-11.475,2.136,27.588
0.699,-0.935,0.416,-6.104,7.996,25.085
0.674,-0.901,0.419,-1.587,6.470,19.897
0.702,-0.875,0.431,1.953,0.854,12.451
0.723,-0.838,0.443,2.808,-3.235,5.981
0.725,-0.797,0.439,1.343,-5.310,1.282
0.724,-0.767,0.419,-1.770,-5.371,-2.991
0.734,-0.763,0.430,-3.479,-5.066,-5.615
0.737,-0.742,0.440,-3.723,-4.089,-6.104
0.717,-0.734,0.437,-3.174,-1.282,-6.165
0.694,-0.712,0.440,-2.869,1.404,-6.775
0.698,-0.700,0.458,-1.770,3.418,-7.996
0.698,-0.687,0.482,0.061,4.700,-8.545
0.672,-0.671,0.490,1.404,6.226,-7.996
0.658,-0.653,0.488,1.465,7.202,-8.972
0.665,-0.647,0.501,1.160,6.714,-10.620
0.659,-0.641,0.502,0.427,5.615,-11.719
0.654,-0.639,0.496,-0.061,4.700,-12.573
0.654,-0.613,0.483,-0.488,2.747,-13.977
0.647,-0.583,0.476,-0.854,0.977,-15.686
0.653,-0.553,0.477,-0.671,0.183,-16.907
0.665,-0.533,0.496,-0.061,0.000,-16.174
0.662,-0.517,0.494,-0.305,1.099,-14.282
0.649,-0.502,0.489,-1.343,2.808,-12.451
0.644,-0.508,0.472,-1.526,3.723,-11.902
0.657,-0.526,0.478,-0.488,3.601,-10.864
0.671,-0.538,0.473,1.465,3.052,-9.155
0.667,-0.542,0.449,3.601,3.113,-7.812
0.675,-0.557,0.447,6.287,2.686,-7.507
0.673,-0.559,0.447,8.850,2.808,-7.385
0.663,-0.553,0.438,10.681,3.357,-7.507
0.676,-0.553,0.457,12.634,3.845,-7.446
0.681,-0.555,0.469,13.245,5.249,-6.653
0.672,-0.553,0.471,12.939,7.385,-5.798
0.665,-0.550,0.463,12.451,8.423,-5.188
0.660,-0.557,0.471,11.841,7.812,-4.272
0.645,-0.553,0.468,10.071,6.042,-3.479
0.638,-0.553,0.456,8.484,3.845,-2.930
0.646,-0.553,0.459,7.690,1.160,-2.380
0.654,-0.554,0.454,6.653,-0.610,-1.526
0.663,-0.569,0.455,5.493,-1.160,-0.488
0.664,-0.574,0.451,3.723,-0.732,0.244
0.673,-0.581,0.455,1.526,-0.122,-0.244
0.656,-0.600,0.455,-0.793,0.793,-1.221
0.662,-0.614,0.463,-2.502,1.282,-1.282
0.658,-0.624,0.463,-3.052,1.038,-1.953
0.668,-0.632,0.470,-2.197,0.610,-2.991
0.662,-0.632,0.466,-1.404,0.305,-3.357
0.651,-0.616,0.455,-1.221,-0.244,-4.150
0.653,-0.610,0.455,-1.099,-1.038,-5.737
0.659,-0.611,0.462,-0.244,-1.953,-6.226
0.655,-0.610,0.470,1.221,-2.930,-5.188
0.644,-0.596,0.473,2.563,-3.418,-4.822
0.646,-0.582,0.475,3.967,-3.601,-4.822
0.658,-0.585,0.493,5.066,-4.456,-3.784
0.660,-0.589,0.488,5.005,-4.700,-1.770
0.656,-0.595,0.478,3.967,-4.517,-0.671
0.658,-0.604,0.469,2.380,-4.578,-1.221
0.667,-0.621,0.473,1.160,-4.456,-1.770
0.663,-0.632,0.470,0.732,-4.028,-2.014
0.655,-0.631,0.465,0.183,-3.601,-2.930
0.659,-0.633,0.473,0.427,-3.235,-4.272
0.659,-0.631,0.473,1.770,-2.869,-4.822
0.656,-0.624,0.474,3.845,-2.808,-4.456
0.658,-0.626,0.478,5.798,-2.380,-4.395
0.656,-0.629,0.478,7.568,-1.465,-4.578
0.648,-0.625,0.473,9.277,-1.221,-4.822
0.649,-0.623,0.472,10.864,-1.099,-5.005
0.654,-0.615,0.474,11.902,-0.671,-4.211
0.649,-0.611,0.471,11.719,-0.305,-3.418
0.644,-0.604,0.463,10.315,0.244,-3.113
0.646,-0.608,0.464,8.423,0.549,-2.930
0.648,-0.609,0.466,6.775,0.610,-2.625
0.644,-0.615,0.471,5.493,0.427,-2.014
0.639,-0.620,0.468,4.639,-0.427,-1.099
0.642,-0.616,0.467,4.211,-1.709,-0.122
0.646,-0.631,0.465,4.211,-3.052,0.793
0.642,-0.634,0.457,3.845,-4.028,1.343
0.644,-0.639,0.444,3.845,-4.883,0.977
0.661,-0.654,0.452,4.456,-5.676,0.916
0.667,-0.662,0.450,4.578,-5.371,1.160
0.667,-0.667,0.441,4.456,-4.456,0.977
0.666,-0.675,0.443,3.906,-4.028,0.732
0.665,-0.672,0.443,3.113,-3.540,0.061
0.663,-0.668,0.443,2.441,-2.808,-1.343
0.664,-0.667,0.442,1.831,-2.136,-2.441
0.658,-0.660,0.441,0.916,-1.465,-2.441
0.648,-0.649,0.440,0.244,-1.160,-3.052
1.864,-1.401,1.099,-180.847,-60.303,473.328
1.968,-1.613,1.233,-258.972,-57.190,426.208
2.067,-1.753,1.458,-317.017,-48.889,381.409
2.171,-1.818,1.684,-351.868,-37.415,349.976
2.193,-1.878,1.864,-365.234,-23.682,328.552
2.327,-1.995,2.020,-358.276,-11.108,315.735
2.301,-2.106,2.064,-328.125,7.263,313.416
2.160,-2.181,2.161,-292.053,9.705,331.482
2.190,-2.250,1.873,-247.131,12.756,353.577
1.911,-2.365,1.852,-194.946,5.859,366.455
1.771,-2.514,1.702,-139.648,-12.451,365.601
1.644,-2.664,1.318,-95.764,-17.273,354.187
1.455,-2.791,0.910,-58.838,-27.405,332.886
1.584,-3.190,0.678,-39.490,-29.480,293.213
0.992,-3.400,0.246,-36.438,-21.179,244.385
1.060,-3.520,0.370,-20.020,-17.334,165.283
0.901,-2.828,0.800,-15.747,5.493,59.448
0.783,-2.185,0.642,-19.531,59.509,-36.926
0.558,-1.587,0.805,-26.001,85.815,-96.924
0.443,-1.050,0.884,-33.691,80.200,-111.328
0.372,-0.711,0.960,-41.138,60.913,-94.421
0.334,-0.518,0.948,-48.157,35.217,-59.570
0.343,-0.481,0.883,-50.964,12.268,-20.813
0.415,-0.637,0.830,-47.180,-5.310,13.855
0.508,-0.903,0.763,-38.269,-16.418,43.457
0.583,-1.212,0.657,-26.001,-21.851,65.430
0.661,-1.513,0.558,-11.780,-23.743,77.087
0.708,-1.701,0.490,2.747,-21.790,77.026
0.785,-1.690,0.482,17.090,-15.076,61.035
0.780,-1.492,0.533,25.330,-3.296,27.649
0.711,-1.208,0.569,23.682,11.902,-11.719
0.668,-0.933,0.578,14.465,22.949,-42.053
0.630,-0.687,0.636,3.540,24.414,-57.068
0.554,-0.500,0.641,-3.113,19.409,-60.486
0.544,-0.406,0.655,-5.493,11.536,-55.054
0.524,-0.351,0.651,-6.287,3.601,-41.748
0.514,-0.337,0.598,-6.287,-1.099,-26.489
0.532,-0.378,0.567,-3.174,-3.662,-14.160
0.546,-0.432,0.549,1.709,-5.127,-4.639
0.563,-0.496,0.548,5.676,-5.127,2.380
0.578,-0.559,0.548,7.202,-3.235,5.676
0.574,-0.608,0.544,7.263,-0.793,5.798
0.568,-0.619,0.531,7.080,0.916,3.052
0.560,-0.599,0.531,6.836,1.404,-1.099
0.558,-0.569,0.537,5.066,1.221,-6.226
0.540,-0.540,0.543,2.014,1.465,-9.766
0.513,-0.519,0.566,-1.404,1.953,-11.902
0.534,-0.475,0.551,-2.258,2.869,-12.268
0.507,-0.516,0.575,0.427,1.709,-10.803
0.509,-0.493,0.568,2.747,-0.305,-8.911
0.536,-0.487,0.567,4.272,-2.136,-5.127
0.544,-0.493,0.561,5.432,-2.930,-0.793
0.551,-0.523,0.537,5.920,-2.258,2.197
0.565,-0.562,0.535,6.287,-2.441,4.150
0.580,-0.582,0.534,7.202,-2.808,4.883
0.591,-0.598,0.524,6.775,-3.174,4.333
0.592,-0.614,0.519,5.066,-3.540,1.892
0.595,-0.614,0.514,2.869,-2.991,-1.587
0.595,-0.599,0.517,2.319,-1.526,-4.578
0.590,-0.567,0.522,3.418,0.427,-5.432
0.576,-0.544,0.541,4.822,2.258,-3.967
0.565,-0.545,0.558,4.456,3.967,-1.038
0.549,-0.557,0.561,3.113,5.127,1.648
0.551,-0.593,0.569,2.502,5.066,3.174
0.544,-0.622,0.549,3.174,4.089,4.456
0.558,-0.641,0.552,4.944,2.808,4.822
0.575,-0.667,0.553,6.958,1.770,4.822
0.579,-0.695,0.542,8.606,2.136,4.700
0.578,-0.703,0.541,10.559,3.235,4.089
0.582,-0.685,0.544,12.695,4.700,1.770
0.591,-0.656,0.553,14.526,6.592,-0.916
0.580,-0.645,0.572,14.465,7.629,-1.648
0.566,-0.628,0.583,11.902,7.141,-1.404
0.560,-0.629,0.591,8.667,5.310,-2.563
0.559,-0.622,0.582,5.432,2.563,-3.845
0.562,-0.622,0.575,2.808,-0.183,-4.456
0.568,-0.636,0.580,1.587,-2.014,-3.845
0.567,-0.651,0.583,0.793,-2.197,-2.808
0.557,-0.674,0.582,0.732,-1.343,-1.770
0.543,-0.684,0.581,2.136,-1.160,-1.099
0.544,-0.688,0.587,5.188,-1.648,-1.343
0.546,-0.676,0.591,8.240,-2.136,-1.465
0.585,-0.666,0.614,10.132,-1.648,-1.221
0.518,-0.624,0.557,10.437,-1.221,-1.587
0.550,-0.633,0.581,11.169,-1.587,-2.014
0.550,-0.618,0.569,9.521,-3.235,-2.869
0.559,-0.619,0.563,6.042,-3.845,-4.150
0.563,-0.627,0.549,2.625,-4.272,-5.920
0.569,-0.634,0.548,0.610,-4.028,-6.714
0.570,-0.634,0.547,0.183,-4.272,-6.958
0.572,-0.638,0.551,1.221,-4.333,-6.470
0.563,-0.629,0.547,1.831,-4.333,-5.188
0.564,-0.634,0.540,2.197,-4.761,-4.395
0.560,-0.642,0.559,2.502,-5.249,-3.967
0.557,-0.644,0.517,2.625,-4.700,-3.174
0.560,-0.650,0.538,4.028,-4.700,-2.808
0.554,-0.641,0.535,4.089,-3.906,-3.296
0.548,-0.635,0.548,2.808,-3.052,-3.906
0.544,-0.632,0.555,1.282,-2.258,-4.761
0.537,-0.624,0.560,-0.488,-1.648,-5.737
0.546,-0.621,0.562,-1.404,-1.892,-6.348
0.553,-0.622,0.558,-1.099,-2.991,-6.348
0.564,-0.622,0.547,-0.305,-3.662,-5.493
0.569,-0.625,0.540,0.732,-4.333,-4.272
0.565,-0.630,0.529,1.160,-4.272,-2.747
0.555,-0.634,0.523,1.221,-4.272,-2.014
0.554,-0.648,0.529,0.977,-3.967,-2.136
0.552,-0.651,0.534,0.549,-3.479,-2.625
0.552,-0.671,0.544,1.099,-2.808,-2.747
0.546,-0.672,0.549,2.014,-2.014,-2.625
0.549,-0.685,0.549,2.380,-1.648,-2.930
0.549,-0.696,0.546,2.625,-2.014,-3.235
0.556,-0.703,0.530,2.869,-1.953,-3.784
0.561,-0.718,0.531,4.333,-1.953,-4.944
0.561,-0.725,0.519,6.104,-1.770,-5.493
0.559,-0.731,0.526,9.155,-1.587,-6.104
0.563,-0.723,0.530,12.573,-1.038,-6.836
0.565,-0.718,0.536,16.296,-0.366,-7.202
0.553,-0.684,0.527,19.104,0.549,-6.348
1.466,-2.091,0.940,-136.230,4.272,446.716
1.544,-2.105,1.019,-108.032,-2.136,455.566
1.574,-1.986,1.079,-99.609,-3.967,444.031
1.622,-1.776,1.234,-128.113,-7.385,414.856
1.669,-1.729,1.375,-194.824,-11.108,368.652
1.664,-1.809,1.508,-273.193,-14.832,312.012
1.656,-2.075,1.739,-333.740,-15.991,258.972
1.687,-2.308,1.585,-352.844,-10.620,229.187
1.496,-2.696,1.630,-331.238,-7.019,210.876
1.396,-2.720,1.489,-283.569,2.380,218.689
1.229,-2.719,1.281,-214.905,10.193,235.474
1.123,-2.626,1.092,-147.522,16.663,244.080
0.989,-2.509,0.986,-96.924,23.499,240.967
0.861,-2.397,0.831,-64.026,33.691,224.854
0.592,-2.300,0.917,-43.823,38.025,195.984
0.686,-2.239,0.697,-34.241,41.870,156.250
0.454,-2.088,0.790,-38.452,50.110,117.249
0.309,-2.171,0.913,-35.767,36.194,66.040
0.346,-1.926,0.842,-45.654,33.264,30.334
0.278,-1.744,0.848,-45.349,35.034,5.066
0.216,-1.529,0.852,-43.335,35.339,-11.353
0.222,-1.354,0.857,-38.208,30.762,-17.090
0.255,-1.200,0.821,-32.349,22.766,-14.954
0.306,-1.074,0.752,-26.123,15.564,-8.240
0.351,-1.017,0.719,-18.677,9.521,0.122
0.424,-1.029,0.665,-10.925,7.324,9.338
0.436,-1.029,0.634,-3.357,6.165,18.982
0.473,-1.083,0.623,5.310,4.150,25.024
0.510,-1.095,0.589,10.193,2.930,25.513
0.496,-1.097,0.527,12.817,0.366,21.423
0.520,-1.043,0.515,11.597,-1.892,13.794
0.528,-0.993,0.461,7.202,-0.671,3.540
0.511,-0.951,0.498,2.380,0.000,-6.409
0.499,-0.913,0.492,-1.587,0.854,-13.245
0.481,-0.881,0.526,-2.930,0.671,-18.311
0.476,-0.807,0.517,-1.648,-0.488,-19.226
0.463,-0.751,0.519,0.549,-1.709,-18.250
0.462,-0.723,0.508,2.808,-2.747,-17.273
0.474,-0.699,0.507,4.272,-2.502,-14.343
0.488,-0.700,0.496,6.897,-1.099,-10.559
0.489,-0.716,0.489,10.010,0.671,-6.897
0.462,-0.712,0.478,13.550,1.648,-4.211
0.502,-0.740,0.466,17.700,1.587,-2.563
0.499,-0.737,0.477,20.325,1.038,-1.404
0.483,-0.724,0.458,21.851,3.052,-1.770
0.482,-0.727,0.472,22.949,3.723,-4.089
0.473,-0.717,0.488,23.010,3.357,-5.615
0.465,-0.699,0.490,21.423,3.296,-6.714
0.457,-0.677,0.498,18.982,3.906,-7.568
0.447,-0.660,0.494,15.320,4.578,-8.423
0.442,-0.654,0.500,11.719,4.700,-8.789
0.433,-0.643,0.494,8.301,5.005,-8.850
0.430,-0.634,0.500,5.798,4.822,-9.155
0.431,-0.611,0.500,4.150,4.395,-8.728
0.432,-0.610,0.506,2.930,4.333,-7.629
0.431,-0.612,0.505,2.136,3.418,-6.836
0.438,-0.627,0.514,2.014,1.038,-5.920
0.448,-0.643,0.509,2.136,-1.953,-4.150
0.458,-0.664,0.498,1.831,-4.089,-2.625
0.471,-0.687,0.485,1.526,-5.615,-2.808
0.482,-0.687,0.470,0.183,-5.981,-4.089
0.484,-0.669,0.469,-2.563,-5.737,-6.226
0.486,-0.665,0.487,-7.385,-4.761,-8.301
0.468,-0.669,0.500,-13.367,-3.052,-10.681
0.456,-0.689,0.509,-18.921,-2.380,-12.695
0.451,-0.723,0.522,-21.545,-3.296,-13.428
0.451,-0.751,0.516,-21.179,-4.211,-11.475
0.451,-0.777,0.517,-18.005,-4.639,-8.728
0.450,-0.784,0.509,-13.062,-3.967,-6.592
0.445,-0.770,0.506,-8.301,-2.441,-4.456
0.438,-0.746,0.512,-5.066,-0.732,-2.747
0.431,-0.742,0.529,-4.028,0.549,-2.014
0.422,-0.756,0.541,-4.578,1.526,-1.343
0.425,-0.780,0.548,-4.700,1.343,-1.099
0.423,-0.803,0.544,-3.784,0.305,-0.977
0.427,-0.807,0.541,-2.625,-0.488,-1.160
0.438,-0.808,0.541,-1.343,-1.160,-2.197
0.440,-0.795,0.537,-0.549,-0.549,-3.357
0.435,-0.785,0.542,0.549,0.488,-3.723
0.434,-0.760,0.549,1.587,1.404,-4.028
0.437,-0.745,0.560,2.258,1.587,-4.578
0.432,-0.732,0.562,2.258,2.075,-4.028
0.421,-0.721,0.559,2.319,2.258,-2.441
0.419,-0.716,0.568,3.357,1.404,-1.648
0.414,-0.718,0.569,3.845,0.244,-0.671
0.410,-0.705,0.560,3.662,-0.977,0.183
0.423,-0.729,0.570,3.357,-2.502,0.427
0.423,-0.729,0.552,2.991,-3.235,1.099
0.432,-0.746,0.549,3.113,-3.662,1.709
0.431,-0.742,0.539,3.845,-3.540,1.404
0.434,-0.742,0.540,4.700,-2.686,1.221
0.437,-0.756,0.549,5.737,-1.404,1.038
0.433,-0.782,0.551,7.080,0.427,1.587
0.422,-0.793,0.542,10.559,1.282,2.502
0.426,-0.801,0.535,15.991,1.404,3.418
0.424,-0.783,0.528,20.874,0.732,4.578
0.432,-0.773,0.525,23.437,0.183,6.042
0.434,-0.760,0.533,23.132,-0.061,6.287
0.433,-0.739,0.509,19.653,0.305,5.676
0.439,-0.757,0.512,15.198,-0.366,4.272
0.441,-0.769,0.497,9.827,-1.526,3.357
0.438,-0.787,0.482,5.127,-2.808,1.343
0.447,-0.812,0.476,2.197,-3.845,-1.038
0.452,-0.817,0.468,1.465,-4.395,-2.502
0.457,-0.814,0.468,2.625,-3.845,-2.930
0.454,-0.810,0.475,3.967,-2.502,-2.747
0.448,-0.812,0.484,4.883,-0.916,-2.380
0.438,-0.801,0.492,5.432,-0.305,-2.258
0.435,-0.797,0.490,5.066,0.305,-2.258
0.434,-0.799,0.491,4.395,0.488,-2.441
0.437,-0.800,0.488,3.479,0.427,-3.052
0.434,-0.801,0.487,2.747,0.305,-4.333
0.431,-0.790,0.481,2.258,-0.305,-5.371
0.434,-0.783,0.492,2.014,-1.099,-6.104
0.432,-0.775,0.492,1.770,-1.343,-5.798
0.430,-0.761,0.490,1.953,-1.221,-5.371
0.428,-0.750,0.490,2.319,-0.793,-5.127
0.427,-0.739,0.491,2.319,-0.122,-4.517
0.433,-0.740,0.499,1.709,0.305,-3.845
1.069,-2.101,0.944,-197.754,-43.091,456.543
1.083,-2.377,0.774,-220.764,-25.940,434.143
1.147,-2.539,0.818,-213.440,-9.094,409.119
1.222,-2.547,0.836,-193.604,9.583,393.982
1.221,-2.565,0.838,-163.757,22.583,385.620
1.213,-2.520,0.872,-129.822,22.095,383.362
1.207,-2.441,0.880,-98.877,14.343,384.399
1.202,-2.308,0.879,-74.036,3.113,380.371
1.115,-2.190,0.767,-55.786,-4.822,368.408
1.083,-2.081,0.855,-54.016,-13.794,344.971
1.066,-1.947,0.891,-69.824,-25.818,318.237
1.057,-1.956,0.924,-100.525,-33.630,281.250
1.042,-1.969,0.893,-135.986,-35.156,240.417
1.027,-1.985,0.808,-164.246,-33.081,204.407
1.305,-1.954,0.452,-175.476,-33.752,177.551
0.854,-2.075,0.575,-166.504,-37.903,157.104
1.059,-1.810,0.514,-147.888,-22.766,151.245
0.844,-2.104,0.520,-116.394,-22.461,131.470
0.871,-1.874,0.446,-102.783,-7.812,120.667
0.764,-1.818,0.411,-89.172,9.094,120.178
0.653,-1.799,0.450,-72.205,19.409,113.037
0.625,-1.763,0.490,-54.077,22.827,98.511
0.603,-1.684,0.529,-40.771,22.888,81.421
0.560,-1.555,0.519,-36.316,22.827,65.186
0.542,-1.430,0.507,-35.400,20.569,47.485
0.574,-1.309,0.462,-35.400,15.503,29.907
0.515,-1.230,0.461,-35.706,9.521,15.198
0.559,-1.177,0.452,-35.767,6.592,4.028
0.561,-1.104,0.448,-34.729,6.287,-2.258
0.565,-1.111,0.450,-28.320,6.226,-4.944
0.559,-1.083,0.426,-20.447,6.836,-6.653
0.558,-1.042,0.427,-10.864,8.301,-8.301
0.565,-0.971,0.404,-1.404,9.583,-10.620
0.558,-0.886,0.443,6.042,8.362,-11.047
0.551,-0.835,0.413,8.972,5.798,-11.536
0.572,-0.759,0.411,4.700,4.700,-14.099
0.536,-0.714,0.406,-2.136,2.625,-15.991
0.558,-0.709,0.421,-7.751,-1.099,-16.235
0.568,-0.729,0.412,-12.573,-3.113,-15.320
0.562,-0.759,0.397,-14.587,-3.723,-14.587
0.565,-0.768,0.376,-12.939,-3.418,-14.221
0.581,-0.762,0.364,-8.301,-2.075,-13.611
0.585,-0.771,0.370,-3.296,0.610,-12.146
0.566,-0.750,0.373,-0.122,3.967,-10.193
0.561,-0.759,0.403,1.587,8.118,-10.742
0.540,-0.760,0.418,1.404,10.986,-11.902
0.514,-0.719,0.424,0.427,11.719,-13.428
0.509,-0.701,0.440,-0.732,11.169,-15.930
0.493,-0.656,0.455,-2.991,9.338,-18.372
0.479,-0.620,0.470,-6.287,7.385,-20.020
0.470,-0.621,0.489,-9.949,5.371,-20.325
0.464,-0.630,0.491,-13.245,3.235,-18.738
0.464,-0.662,0.491,-13.062,1.709,-16.174
0.466,-0.684,0.482,-9.644,0.793,-12.085
0.475,-0.687,0.484,-4.700,-0.305,-7.446
0.487,-0.691,0.477,-0.671,-0.793,-3.479
0.491,-0.696,0.465,1.343,-0.244,-1.038
0.489,-0.698,0.463,1.526,-0.549,-0.427
0.497,-0.713,0.478,0.732,-1.221,-1.404
0.501,-0.714,0.474,-0.732,-1.587,-2.136
0.496,-0.699,0.468,-2.380,-2.197,-3.723
0.501,-0.682,0.480,-4.456,-2.563,-6.165
0.507,-0.662,0.485,-7.874,-2.686,-7.080
0.512,-0.683,0.491,-11.841,-2.991,-7.080
0.526,-0.716,0.480,-14.221,-3.845,-6.287
0.537,-0.748,0.462,-14.221,-4.700,-4.089
0.553,-0.774,0.454,-12.329,-5.005,-2.502
0.555,-0.778,0.443,-9.644,-3.662,-2.380
0.550,-0.757,0.437,-7.263,-1.282,-3.357
0.539,-0.727,0.453,-5.493,1.343,-4.211
0.524,-0.720,0.466,-5.188,3.662,-4.333
0.513,-0.722,0.481,-4.517,4.761,-4.150
0.505,-0.722,0.494,-2.991,4.639,-4.089
0.499,-0.742,0.502,-1.099,3.540,-3.296
0.496,-0.753,0.508,0.427,2.014,-2.197
0.485,-0.735,0.498,1.160,0.366,-2.563
0.495,-0.742,0.507,0.183,-0.793,-4.578
0.482,-0.717,0.501,-2.136,-0.793,-5.615
0.490,-0.726,0.516,-4.456,-0.916,-6.958
0.493,-0.733,0.520,-5.981,-0.977,-7.324
0.492,-0.742,0.511,-6.409,-0.916,-7.141
0.498,-0.751,0.502,-5.066,-0.793,-6.897
0.499,-0.753,0.501,-2.747,-0.732,-6.592
0.501,-0.759,0.499,0.061,-0.305,-6.042
0.501,-0.751,0.499,2.502,-0.610,-5.676
0.493,-0.714,0.490,3.845,-1.038,-5.493
0.492,-0.707,0.497,3.845,-1.953,-5.737
0.487,-0.716,0.501,2.136,-3.723,-6.287
0.487,-0.729,0.494,-0.305,-5.798,-7.263
0.500,-0.750,0.497,-1.770,-7.751,-8.667
0.511,-0.743,0.488,-3.113,-8.423,-9.399
0.514,-0.739,0.478,-3.967,-7.507,-9.399
0.518,-0.742,0.479,-5.127,-6.042,-8.667
0.505,-0.736,0.481,-6.226,-4.395,-7.507
0.500,-0.748,0.481,-6.470,-2.930,-6.836
0.498,-0.760,0.492,-6.287,-1.709,-5.676
0.488,-0.781,0.493,-5.432,-1.404,-4.761
0.485,-0.799,0.495,-3.906,-2.136,-3.784
0.483,-0.798,0.488,-2.563,-2.991,-4.028
0.486,-0.788,0.483,-1.648,-2.747,-5.676
0.485,-0.760,0.490,-1.770,-2.014,-7.019
0.472,-0.723,0.490,-3.418,-0.977,-7.568
0.469,-0.724,0.504,-5.127,-0.732,-8.301
0.456,-0.698,0.506,-6.470,-0.977,-8.057
0.461,-0.705,0.520,-6.592,-0.916,-7.751
0.459,-0.721,0.523,-5.493,-0.977,-6.348
0.467,-0.733,0.517,-4.333,-1.648,-4.395
0.464,-0.749,0.512,-2.441,-2.502,-3.174
0.475,-0.755,0.502,-0.916,-3.235,-2.686
0.486,-0.750,0.495,0.244,-3.601,-2.502
0.489,-0.747,0.487,0.000,-2.869,-2.930
0.485,-0.730,0.483,-1.282,-1.587,-4.150
0.480,-0.731,0.498,-2.075,-0.793,-5.737
0.522,-0.733,0.511,-2.625,-0.427,-6.165
0.427,-0.700,0.483,-3.235,-0.366,-6.409
0.477,-0.725,0.517,-2.197,-0.366,-5.859
0.473,-0.725,0.505,-1.770,-1.526,-4.517
0.469,-0.735,0.509,-0.977,-2.197,-3.662
0.474,-0.729,0.504,0.061,-3.174,-3.479
1.094,-1.655,0.897,-270.142,16.541,400.391
1.190,-1.651,0.978,-276.855,31.494,385.681
1.381,-1.704,1.102,-271.667,45.715,378.723
1.521,-1.631,1.177,-256.348,51.697,378.357
1.880,-1.903,1.566,-230.164,54.443,382.080
1.909,-2.282,1.668,-217.346,54.321,395.203
1.917,-2.680,1.922,-202.026,44.312,407.959
1.852,-2.993,1.786,-187.317,34.790,400.818
1.461,-3.193,1.644,-170.349,31.494,371.155
1.291,-3.131,1.340,-155.029,15.747,321.960
1.179,-3.038,1.010,-149.902,2.991,264.404
1.497,-2.931,0.613,-146.240,-10.559,210.327
1.306,-2.858,0.426,-138.794,-14.404,164.001
1.006,-2.717,0.319,-119.629,-2.991,130.310
0.968,-2.566,0.314,-93.811,14.404,98.206
0.802,-2.475,0.357,-78.125,39.063,66.406
0.629,-2.138,0.449,-67.505,61.279,41.565
0.469,-1.781,0.588,-60.059,75.867,25.024
0.304,-1.480,0.768,-54.932,81.970,7.629
0.159,-1.235,0.884,-55.603,80.688,-5.432
0.072,-1.112,0.908,-58.350,71.106,-8.057
0.068,-1.066,0.885,-57.434,53.589,-0.977
0.142,-1.078,0.824,-49.561,33.936,11.169
0.213,-1.078,0.746,-37.292,19.958,23.987
0.319,-1.126,0.664,-24.170,13.916,34.424
0.385,-1.138,0.624,-12.939,13.245,41.443
0.451,-1.141,0.591,-6.653,14.648,40.894
0.492,-1.155,0.587,-6.958,18.494,34.790
0.508,-1.098,0.561,-13.428,22.461,25.635
0.505,-1.066,0.550,-21.118,24.170,15.259
0.504,-1.036,0.593,-26.245,21.606,5.066
0.500,-1.044,0.627,-27.771,15.686,-2.930
0.497,-1.020,0.602,-24.170,10.315,-6.958
0.508,-1.000,0.585,-15.930,5.310,-7.385
0.512,-0.991,0.548,-6.897,1.709,-6.531
0.501,-0.886,0.498,0.183,0.183,-6.470
0.519,-0.834,0.497,4.761,0.183,-10.071
0.512,-0.805,0.518,4.150,2.991,-14.221
0.487,-0.751,0.503,0.793,6.104,-16.968
0.480,-0.745,0.534,0.427,6.226,-18.982
0.472,-0.696,0.533,0.427,3.967,-17.273
0.463,-0.693,0.535,0.366,1.648,-14.343
0.466,-0.692,0.523,-0.488,-1.221,-11.902
0.481,-0.725,0.512,-0.061,-3.723,-10.498
0.496,-0.731,0.493,3.174,-5.188,-9.094
0.501,-0.716,0.484,7.080,-4.639,-7.568
0.499,-0.690,0.483,9.155,-2.563,-7.202
0.490,-0.661,0.495,8.484,-0.854,-7.324
0.486,-0.655,0.504,5.249,-0.366,-8.179
0.485,-0.660,0.508,1.892,0.000,-9.521
0.486,-0.680,0.511,0.916,0.061,-9.827
0.483,-0.683,0.504,2.258,-0.671,-8.362
0.484,-0.684,0.500,5.310,-1.831,-7.385
0.487,-0.657,0.495,7.935,-2.991,-7.996
0.493,-0.636,0.477,8.911,-3.174,-8.484
0.498,-0.642,0.489,9.521,-3.235,-7.507
0.497,-0.642,0.481,8.972,-3.052,-7.019
0.500,-0.643,0.478,8.850,-2.808,-7.446
0.501,-0.636,0.476,6.653,-2.502,-8.118
0.508,-0.674,0.482,3.967,-1.953,-9.033
0.504,-0.676,0.480,2.502,-1.099,-8.850
0.506,-0.670,0.483,3.052,0.061,-8.728
0.511,-0.676,0.500,4.333,1.343,-8.179
0.500,-0.662,0.502,4.578,2.808,-6.653
0.486,-0.652,0.510,4.272,3.418,-5.615
0.475,-0.642,0.518,2.563,2.808,-4.578
0.470,-0.660,0.531,0.366,1.465,-4.028
0.471,-0.679,0.522,-1.526,0.305,-3.479
0.477,-0.697,0.516,-2.197,-0.610,-2.747
0.478,-0.712,0.505,-1.526,-1.038,-1.465
0.477,-0.733,0.502,0.427,-0.916,0.305
0.474,-0.725,0.501,1.770,-0.854,1.892
0.473,-0.703,0.501,2.136,-0.732,1.648
0.474,-0.709,0.514,1.343,0.427,0.366
0.466,-0.719,0.521,-0.122,1.404,0.122
0.474,-0.739,0.531,-0.671,1.587,0.610
0.466,-0.739,0.528,-0.732,1.404,1.465
0.466,-0.742,0.530,-0.671,0.732,1.038
0.471,-0.745,0.533,-0.732,-0.488,0.061
0.475,-0.751,0.527,-0.793,-1.465,-0.061
0.466,-0.746,0.527,-0.244,-2.502,0.183
0.474,-0.747,0.534,1.404,-3.052,-0.671
0.469,-0.737,0.532,2.625,-2.441,-1.160
0.467,-0.719,0.533,3.052,-1.587,-1.465
0.472,-0.723,0.544,2.625,-1.221,-1.648
0.468,-0.721,0.531,1.221,-1.465,-1.282
0.471,-0.733,0.525,0.305,-2.258,-1.648
0.483,-0.753,0.523,0.122,-3.540,-1.831
0.481,-0.763,0.515,-0.122,-3.601,-1.587
0.473,-0.761,0.509,0.488,-3.662,-2.136
0.474,-0.751,0.516,1.099,-3.662,-2.808
0.468,-0.758,0.525,1.404,-3.418,-2.502
0.445,-0.739,0.528,1.038,-3.601,-2.563
0.445,-0.740,0.539,1.465,-4.456,-4.211
0.452,-0.750,0.542,1.831,-5.920,-4.517
0.452,-0.744,0.526,1.892,-7.263,-3.540
0.462,-0.746,0.515,2.869,-8.362,-4.333
0.473,-0.739,0.511,3.540,-8.728,-5.615
0.477,-0.744,0.502,3.235,-8.301,-5.310
0.484,-0.737,0.489,2.502,-7.446,-4.578
0.484,-0.749,0.490,1.770,-6.165,-3.906
0.473,-0.782,0.475,1.709,-5.371,-3.174
0.486,-0.803,0.488,2.563,-5.188,-2.380
0.484,-0.822,0.481,3.479,-4.761,-2.686
0.484,-0.812,0.476,4.578,-4.333,-3.967
0.485,-0.785,0.478,5.493,-3.662,-5.554
0.482,-0.768,0.481,5.615,-2.502,-6.348
0.470,-0.757,0.485,5.066,-1.648,-6.714
0.465,-0.766,0.496,4.211,-1.892,-6.592
0.457,-0.770,0.490,3.662,-1.709,-6.226
0.446,-0.742,0.491,3.479,-1.770,-6.409
0.438,-0.732,0.496,4.272,-2.136,-7.263
0.434,-0.688,0.506,3.235,-2.319,-7.324
0.458,-0.704,0.535,2.075,-2.563,-6.287
0.426,-0.716,0.505,1.038,-2.686,-3.723
0.455,-0.744,0.518,1.892,-3.296,-1.465
0.463,-0.757,0.500,2.563,-4.395,-0.549
0.479,-0.750,0.494,2.625,-4.578,-0.732
0.484,-0.747,0.492,1.526,-2.869,-1.526
1.804,-2.139,1.144,-27.039,15.503,577.087
1.897,-2.333,1.207,-36.804,5.310,572.510
1.779,-2.321,0.994,-58.411,8.301,540.405
1.664,-2.271,0.914,-80.444,7.141,487.366
1.539,-2.095,0.852,-113.464,1.465,436.279
1.733,-2.139,0.884,-153.992,1.648,386.963
1.557,-1.998,0.940,-191.162,-12.024,342.163
1.595,-2.101,1.027,-225.464,-22.400,301.270
1.531,-2.145,1.067,-245.178,-28.442,266.785
1.468,-2.162,0.999,-252.258,-18.005,245.239
1.415,-2.154,1.032,-242.615,-4.211,236.084
1.389,-2.177,1.035,-223.755,12.695,233.704
1.281,-2.273,0.991,-194.031,25.574,234.375
1.177,-2.421,0.895,-153.076,26.489,233.093
0.787,-2.532,0.831,-106.445,15.198,221.741
1.012,-2.232,0.676,-60.547,11.169,202.026
0.864,-2.458,0.569,-26.123,0.122,174.438
0.788,-2.234,0.487,-23.193,2.319,135.254
0.728,-2.049,0.420,-35.095,8.179,106.812
0.686,-1.896,0.456,-50.598,16.541,77.209
0.633,-1.826,0.541,-61.951,25.452,45.105
0.569,-1.724,0.606,-71.716,32.410,21.057
0.536,-1.628,0.663,-74.890,34.058,8.972
0.463,-1.524,0.689,-69.763,28.931,3.906
0.464,-1.427,0.692,-58.655,20.081,2.747
0.466,-1.357,0.672,-46.753,13.306,4.395
0.480,-1.299,0.637,-35.950,8.545,8.789
0.484,-1.259,0.620,-25.269,5.188,13.000
0.565,-1.193,0.596,-16.602,5.798,15.137
0.534,-1.235,0.563,-9.827,6.470,12.451
0.538,-1.195,0.546,-6.287,8.484,4.700
0.533,-1.099,0.514,-4.028,5.981,-2.075
0.557,-1.038,0.518,-5.005,3.540,-11.108
0.545,-0.964,0.506,-8.972,1.099,-20.569
0.572,-0.887,0.520,-11.902,1.526,-28.748
0.575,-0.834,0.521,-11.719,2.319,-31.433
0.577,-0.792,0.513,-9.888,3.052,-30.273
0.536,-0.732,0.480,-5.554,2.625,-28.625
0.550,-0.679,0.497,-0.671,1.892,-25.940
0.550,-0.647,0.495,4.272,1.221,-22.705
0.544,-0.639,0.483,7.141,1.709,-18.372
0.539,-0.675,0.476,11.292,1.404,-14.648
0.541,-0.693,0.468,16.235,-1.404,-11.841
0.560,-0.697,0.442,19.653,-3.418,-10.437
0.562,-0.663,0.406,19.287,-3.357,-11.902
0.564,-0.625,0.386,15.503,-2.197,-15.625
0.559,-0.607,0.396,9.888,-0.610,-19.531
0.553,-0.622,0.413,4.211,1.648,-21.729
0.536,-0.628,0.420,2.014,3.235,-21.729
0.525,-0.619,0.437,3.296,3.235,-19.165
0.510,-0.622,0.436,5.188,2.380,-15.137
0.514,-0.629,0.441,7.324,0.854,-12.512
0.507,-0.622,0.432,8.423,-0.183,-10.925
0.509,-0.629,0.443,8.667,-1.038,-9.644
0.513,-0.622,0.435,7.751,-2.136,-8.850
0.528,-0.627,0.432,7.080,-3.052,-8.240
0.553,-0.637,0.411,5.859,-4.150,-6.042
0.554,-0.646,0.410,5.249,-3.845,-5.249
0.556,-0.664,0.421,4.272,-3.235,-4.700
0.555,-0.684,0.427,4.395,-2.747,-3.906
0.549,-0.688,0.435,5.310,-1.953,-2.380
0.553,-0.694,0.445,5.066,-0.854,-0.977
0.547,-0.689,0.445,3.174,0.366,-0.183
0.540,-0.690,0.450,1.526,0.854,0.061
0.545,-0.708,0.458,0.793,0.671,0.732
0.536,-0.709,0.457,1.038,0.732,1.953
0.540,-0.726,0.466,2.136,1.648,3.174
0.527,-0.744,0.473,3.235,2.563,4.578
0.508,-0.747,0.475,4.333,2.869,5.310
0.504,-0.754,0.487,5.188,2.808,4.578
0.499,-0.757,0.492,5.432,2.808,3.662
0.493,-0.735,0.487,5.249,2.869,2.563
0.496,-0.729,0.495,4.578,3.418,1.038
0.497,-0.730,0.498,2.869,3.845,0.549
0.490,-0.741,0.500,1.770,3.479,0.671
0.491,-0.747,0.506,2.014,2.258,1.282
0.495,-0.763,0.503,3.235,0.488,2.319
0.491,-0.762,0.495,5.066,-1.892,2.991
0.503,-0.768,0.491,6.775,-3.784,2.686
0.513,-0.763,0.479,7.324,-4.517,2.808
0.517,-0.760,0.467,7.935,-4.333,2.380
0.527,-0.760,0.465,8.423,-3.540,1.709
0.536,-0.754,0.455,8.301,-2.441,0.671
0.543,-0.752,0.449,7.263,-1.038,-0.305
0.545,-0.756,0.445,5.371,0.549,-1.404
0.538,-0.766,0.444,3.662,1.587,-2.380
0.533,-0.768,0.448,3.174,1.282,-3.357
0.520,-0.751,0.448,3.174,0.244,-3.540
0.519,-0.741,0.450,2.808,-1.160,-4.089
0.509,-0.732,0.449,1.953,-2.502,-4.150
0.516,-0.744,0.450,1.404,-3.235,-3.357
0.515,-0.749,0.445,1.404,-3.662,-1.831
0.517,-0.760,0.437,2.014,-3.845,-1.099
0.520,-0.771,0.433,2.869,-3.967,-0.793
0.518,-0.747,0.422,3.296,-3.845,-1.160
0.521,-0.745,0.419,2.991,-3.418,-2.502
0.525,-0.745,0.421,1.831,-3.296,-3.296
0.529,-0.756,0.421,1.526,-3.113,-3.418
0.532,-0.765,0.418,1.892,-2.808,-3.296
0.536,-0.775,0.421,3.235,-2.686,-2.869
0.527,-0.772,0.420,5.066,-2.686,-2.625
0.520,-0.767,0.419,6.531,-2.563,-2.319
0.513,-0.770,0.430,7.324,-3.052,-2.014
0.506,-0.762,0.431,7.263,-3.662,-2.380
0.510,-0.766,0.436,6.592,-4.517,-3.235
0.511,-0.766,0.430,5.676,-5.188,-3.479
0.519,-0.774,0.427,4.639,-5.554,-3.601
0.516,-0.765,0.417,4.150,-5.554,-3.906
0.524,-0.765,0.416,3.906,-5.249,-4.822
0.528,-0.768,0.414,3.235,-4.639,-4.578
0.530,-0.769,0.409,2.991,-4.089,-4.211
0.535,-0.786,0.406,3.906,-3.357,-4.272
0.537,-0.781,0.400,4.211,-2.808,-4.028
0.524,-0.753,0.400,4.456,-1.770,-5.005
0.516,-0.734,0.413,3.967,-0.854,-5.981
0.507,-0.729,0.426,2.808,0.061,-5.493
0.501,-0.733,0.431,2.014,0.305,-4.578
0.501,-0.746,0.436,2.075,0.488,-4.089
0.499,-0.755,0.436,2.563,-0.305,-2.930
1.212,-1.494,1.000,-157.227,103.210,525.574
1.191,-1.579,0.996,-159.668,111.877,521.179
1.281,-1.830,1.138,-162.415,101.501,488.892
1.393,-1.898,1.271,-169.128,68.237,448.792
1.445,-1.934,1.240,-172.546,30.334,411.682
1.596,-1.917,1.278,-170.959,-1.160,384.521
1.642,-1.871,1.286,-176.025,-14.343,370.728
1.796,-1.932,1.433,-188.110,1.282,361.023
1.803,-1.835,1.575,-193.665,23.865,359.009
1.769,-1.924,1.758,-200.134,49.988,361.938
1.709,-1.944,1.770,-201.904,60.486,366.638
1.709,-2.083,1.805,-190.552,59.509,368.408
1.638,-2.260,1.735,-171.021,55.603,362.793
1.522,-2.346,1.566,-143.311,43.396,353.088
1.371,-2.449,1.405,-116.516,24.414,335.876
1.230,-2.516,1.126,-97.107,2.686,307.190
1.129,-2.558,0.861,-89.355,-9.460,265.564
0.825,-2.681,0.698,-89.905,-13.306,212.585
0.824,-2.457,0.403,-92.590,1.831,159.973
0.786,-2.817,0.422,-79.956,3.052,108.276
0.684,-2.663,0.477,-71.838,14.954,55.420
0.591,-2.365,0.542,-58.044,34.546,23.499
0.513,-1.985,0.644,-41.077,51.819,-0.427
0.459,-1.661,0.719,-24.109,57.190,-19.165
0.411,-1.339,0.807,-15.564,50.415,-32.166
0.382,-1.076,0.855,-16.724,40.039,-37.354
0.361,-0.907,0.845,-22.827,29.053,-34.180
0.337,-0.830,0.804,-27.222,18.005,-24.170
0.337,-0.863,0.749,-26.611,6.348,-9.827
0.388,-0.930,0.697,-20.508,-4.333,5.920
0.436,-1.026,0.665,-11.414,-11.353,18.250
0.519,-1.120,0.619,-2.197,-12.024,26.184
0.567,-1.227,0.526,9.705,-9.094,30.579
0.587,-1.203,0.489,22.095,-2.441,28.748
0.582,-1.150,0.459,31.372,1.648,20.752
0.568,-1.036,0.476,28.259,6.042,5.249
0.554,-0.927,0.510,16.968,8.179,-11.597
0.524,-0.866,0.543,2.808,7.874,-25.452
0.508,-0.809,0.551,-6.958,4.333,-34.851
0.502,-0.768,0.558,-9.216,-1.099,-38.879
0.493,-0.724,0.549,-7.141,-6.531,-38.025
0.531,-0.695,0.515,-2.747,-10.254,-34.607
0.534,-0.697,0.487,2.869,-11.597,-29.419
0.545,-0.673,0.467,8.972,-10.254,-22.156
0.538,-0.650,0.460,12.756,-7.874,-16.296
0.536,-0.659,0.469,13.611,-4.883,-13.977
0.522,-0.681,0.473,10.803,-1.038,-13.123
0.506,-0.693,0.478,7.629,2.136,-13.000
0.501,-0.694,0.491,5.920,3.296,-14.587
0.483,-0.682,0.496,5.859,3.296,-15.747
0.473,-0.670,0.507,6.653,2.197,-16.174
0.470,-0.656,0.521,7.080,0.732,-15.442
0.457,-0.660,0.528,6.836,-0.793,-15.198
0.447,-0.660,0.516,6.287,-3.052,-15.076
0.456,-0.663,0.507,6.836,-5.249,-15.198
0.460,-0.645,0.492,7.385,-6.348,-14.526
0.469,-0.643,0.487,8.118,-5.737,-14.038
0.468,-0.650,0.485,8.362,-4.028,-12.817
0.471,-0.649,0.486,9.277,-1.587,-10.986
0.472,-0.656,0.492,10.864,0.549,-9.277
0.453,-0.652,0.510,11.780,0.610,-7.507
0.444,-0.649,0.493,13.062,0.244,-6.226
0.470,-0.637,0.508,13.672,-0.549,-4.822
0.467,-0.634,0.503,11.353,-0.916,-4.150
0.467,-0.649,0.500,7.507,-1.831,-4.456
0.473,-0.668,0.500,3.967,-3.113,-5.676
0.473,-0.669,0.488,1.709,-4.395,-6.348
0.473,-0.662,0.481,1.282,-5.310,-6.226
0.483,-0.677,0.486,1.221,-5.859,-5.188
0.487,-0.693,0.480,0.793,-5.066,-3.357
0.481,-0.724,0.476,1.099,-3.296,-1.831
0.476,-0.752,0.473,1.770,-1.343,-0.854
0.472,-0.777,0.475,2.686,-0.305,-0.671
0.460,-0.790,0.476,3.662,0.488,-0.671
0.450,-0.784,0.482,4.822,0.671,-1.892
0.453,-0.779,0.495,5.798,0.977,-4.028
0.434,-0.741,0.486,6.042,1.099,-5.371
0.452,-0.727,0.506,6.897,0.732,-5.981
0.448,-0.719,0.507,5.249,0.793,-6.592
0.453,-0.703,0.505,2.991,0.916,-5.859
0.456,-0.710,0.505,0.916,1.343,-4.883
0.451,-0.723,0.501,-0.305,2.075,-3.540
0.454,-0.748,0.503,-0.183,2.136,-1.953
0.451,-0.766,0.503,1.404,1.892,-0.427
0.450,-0.775,0.506,3.418,1.648,0.366
0.447,-0.768,0.506,4.822,1.160,0.854
0.451,-0.770,0.508,4.822,0.549,0.305
0.454,-0.780,0.510,3.662,-0.061,-0.793
0.456,-0.787,0.502,2.808,-0.549,-1.953
0.462,-0.782,0.500,3.296,-1.221,-3.174
0.462,-0.771,0.495,3.723,-1.038,-4.333
0.458,-0.762,0.493,3.479,0.427,-4.395
0.449,-0.751,0.498,2.747,2.197,-4.639
0.441,-0.741,0.505,2.014,3.601,-4.883
0.436,-0.738,0.528,1.892,3.967,-4.700
0.422,-0.745,0.532,1.709,2.869,-3.723
0.417,-0.749,0.530,2.136,0.427,-2.563
0.423,-0.750,0.524,3.357,-1.770,-1.831
0.432,-0.750,0.521,4.761,-3.418,-0.916
0.436,-0.760,0.516,5.066,-4.089,0.061
0.440,-0.777,0.516,5.249,-4.395,0.916
0.490,-0.795,0.513,5.798,-4.639,1.099
0.403,-0.762,0.487,5.859,-4.822,0.305
0.462,-0.792,0.505,6.042,-4.517,-0.366
0.449,-0.745,0.478,3.601,-3.601,-0.610
0.461,-0.764,0.483,1.587,-1.892,-0.793
0.458,-0.771,0.485,1.160,-1.160,-1.892
0.468,-0.773,0.496,1.221,-1.038,-2.441
0.423,-0.767,0.493,1.343,-1.648,-2.747
0.448,-0.776,0.502,1.404,-2.747,-2.380
0.445,-0.773,0.496,1.404,-3.662,-2.136
0.444,-0.779,0.492,1.648,-4.028,-1.953
0.445,-0.787,0.486,2.075,-4.456,-1.282
0.451,-0.789,0.487,3.052,-4.578,-0.854
0.457,-0.782,0.479,3.601,-4.639,-0.916
0.465,-0.780,0.478,3.296,-4.028,-1.282
0.470,-0.775,0.473,2.502,-2.808,-1.770
0.471,-0.777,0.471,2.136,-1.526,-2.625
0.469,-0.780,0.472,1.770,-0.488,-2.686
1.556,-1.516,0.899,-125.183,-38.574,503.174
1.591,-1.530,0.948,-151.428,-17.090,486.816
1.679,-1.504,0.985,-183.167,2.319,457.886
1.861,-1.621,1.112,-216.980,13.916,429.199
2.082,-2.101,1.276,-239.380,18.188,407.715
2.103,-2.543,1.442,-240.051,15.198,402.283
1.941,-2.815,1.481,-213.989,15.747,403.931
1.667,-2.969,1.494,-169.006,16.479,396.606
1.450,-2.934,1.417,-121.277,11.108,380.981
1.298,-2.763,1.192,-81.665,-4.944,356.445
1.182,-2.570,0.911,-57.861,-34.729,319.336
1.237,-2.390,0.709,-52.124,-67.749,275.269
1.269,-2.289,0.490,-60.120,-88.074,232.422
1.246,-2.238,0.309,-72.937,-92.102,194.885
1.420,-2.216,0.125,-83.313,-83.801,163.757
1.089,-2.344,0.221,-86.182,-69.641,134.155
1.116,-2.211,0.140,-81.116,-35.461,116.577
0.941,-2.357,0.157,-62.256,-10.803,89.600
0.883,-2.159,0.220,-53.650,14.038,69.275
0.815,-1.967,0.316,-44.495,31.372,56.580
0.745,-1.741,0.385,-36.438,43.152,43.518
0.651,-1.527,0.445,-30.762,51.880,26.672
0.613,-1.298,0.534,-33.569,56.702,11.780
0.500,-1.143,0.601,-44.434,57.678,1.770
0.426,-1.039,0.613,-55.786,54.688,-2.441
0.381,-1.000,0.638,-61.462,48.828,-2.319
0.351,-0.977,0.649,-60.852,38.147,1.892
0.373,-0.965,0.627,-55.298,25.085,8.301
0.366,-1.002,0.595,-46.387,11.353,14.648
0.427,-0.926,0.588,-36.255,-1.648,20.691
0.472,-1.000,0.516,-21.606,-13.550,23.865
0.533,-0.990,0.463,-11.780,-18.372,22.278
0.587,-0.968,0.419,-6.470,-19.653,21.545
0.615,-0.959,0.351,-3.540,-16.724,18.982
0.643,-0.936,0.347,-1.526,-11.841,14.404
0.653,-0.897,0.345,-1.953,-7.446,10.315
0.636,-0.862,0.341,-5.127,-2.930,6.226
0.609,-0.842,0.361,-8.484,0.183,1.648
0.589,-0.831,0.398,-11.353,1.160,-3.052
0.566,-0.825,0.420,-11.536,0.000,-6.836
0.565,-0.828,0.440,-9.216,-2.563,-9.216
0.576,-0.822,0.442,-5.127,-4.822,-9.705
0.571,-0.795,0.420,-0.671,-6.775,-9.277
0.572,-0.759,0.405,2.747,-7.568,-9.827
0.568,-0.704,0.394,3.357,-6.470,-11.414
0.581,-0.677,0.403,1.526,-3.967,-13.672
0.577,-0.667,0.421,-2.136,-0.610,-14.343
0.557,-0.655,0.426,-5.859,2.502,-13.306
0.557,-0.669,0.445,-7.263,3.967,-11.841
0.555,-0.690,0.456,-7.874,3.784,-9.766
0.515,-0.704,0.437,-6.836,2.075,-7.935
0.539,-0.726,0.446,-3.845,0.366,-7.141
0.533,-0.732,0.425,-0.549,-0.488,-6.775
0.539,-0.738,0.417,2.930,-0.122,-6.226
0.532,-0.730,0.415,5.371,0.427,-5.676
0.520,-0.694,0.424,6.165,1.099,-5.981
0.528,-0.686,0.439,5.981,2.441,-7.202
0.521,-0.672,0.443,3.662,2.808,-7.385
0.513,-0.670,0.450,1.526,2.136,-7.629
0.511,-0.667,0.461,0.000,0.916,-8.301
0.511,-0.681,0.461,-0.732,0.061,-8.362
0.515,-0.693,0.462,-0.793,-1.099,-7.263
0.517,-0.706,0.459,-0.305,-2.319,-6.531
0.515,-0.700,0.448,0.854,-3.418,-5.737
0.522,-0.698,0.440,2.136,-4.456,-4.639
0.536,-0.707,0.440,4.089,-4.822,-3.357
0.540,-0.715,0.436,5.615,-3.906,-1.953
0.546,-0.734,0.429,6.775,-1.770,-0.916
0.547,-0.752,0.421,7.019,0.427,-0.916
0.547,-0.763,0.421,7.019,2.319,-2.075
0.535,-0.748,0.422,7.263,3.601,-3.967
0.535,-0.725,0.436,6.958,4.028,-5.676
0.531,-0.707,0.453,5.432,3.601,-6.409
0.519,-0.701,0.454,2.686,2.869,-6.409
0.510,-0.710,0.463,0.549,1.770,-6.653
0.504,-0.716,0.463,-0.366,0.427,-6.226
0.505,-0.716,0.464,-0.061,-1.587,-5.493
0.515,-0.736,0.458,1.099,-3.418,-4.456
0.519,-0.760,0.443,1.953,-3.906,-2.991
0.525,-0.780,0.427,3.296,-3.784,-2.258
0.530,-0.780,0.413,5.188,-2.258,-2.747
0.531,-0.775,0.414,6.775,-0.183,-3.418
0.520,-0.750,0.415,7.080,1.892,-4.028
0.519,-0.738,0.435,6.592,3.967,-5.188
0.510,-0.722,0.451,4.822,5.493,-5.615
0.498,-0.727,0.458,2.930,5.493,-5.371
0.495,-0.727,0.464,1.709,3.906,-4.822
0.500,-0.731,0.466,1.465,1.831,-4.700
0.496,-0.724,0.461,1.099,-0.549,-4.700
0.503,-0.717,0.457,0.488,-2.502,-4.395
0.512,-0.725,0.448,-0.122,-3.662,-3.723
0.522,-0.741,0.437,-1.221,-4.028,-2.625
0.529,-0.761,0.426,-1.465,-3.662,-2.136
0.538,-0.781,0.421,-1.099,-2.686,-2.319
0.537,-0.787,0.413,-0.366,-1.465,-2.869
0.539,-0.778,0.413,0.549,0.000,-3.662
0.547,-0.771,0.421,0.854,2.075,-5.066
0.537,-0.756,0.424,0.732,3.845,-5.615
0.528,-0.748,0.430,0.610,4.883,-6.104
0.523,-0.743,0.443,0.549,5.493,-6.470
0.513,-0.742,0.452,0.427,5.615,-6.531
0.499,-0.739,0.458,0.122,5.188,-6.226
0.490,-0.731,0.467,0.183,4.456,-6.165
0.485,-0.729,0.481,-0.061,3.052,-6.409
0.489,-0.734,0.487,-0.610,1.465,-5.920
0.487,-0.735,0.478,-0.732,0.427,-4.639
0.495,-0.740,0.469,-0.488,-0.671,-3.479
0.501,-0.745,0.458,0.122,-2.014,-2.502
0.506,-0.755,0.446,0.549,-2.380,-2.075
0.516,-0.764,0.438,0.854,-2.014,-2.319
0.520,-0.777,0.431,1.526,-1.526,-2.625
0.517,-0.775,0.433,2.014,-0.610,-2.380
0.520,-0.781,0.434,2.319,0.366,-2.930
0.521,-0.776,0.435,2.197,0.793,-3.357
0.520,-0.778,0.438,1.892,1.038,-4.089
0.517,-0.785,0.440,1.404,1.099,-4.883
0.511,-0.784,0.442,1.587,0.610,-5.554
0.509,-0.770,0.452,2.319,0.183,-6.104
0.508,-0.756,0.458,2.747,-0.671,-6.348
1.203,-1.666,0.652,-215.820,1.404,390.015
1.199,-1.595,0.688,-199.219,23.071,397.400
1.189,-1.528,0.748,-186.157,42.969,407.532
1.261,-1.507,0.844,-179.382,57.983,420.471
1.465,-1.770,1.007,-175.720,64.331,432.617
1.601,-2.218,1.191,-169.800,56.641,442.078
1.628,-2.503,1.257,-163.208,41.138,445.312
1.527,-2.735,1.260,-151.672,24.475,427.795
1.412,-2.871,1.252,-150.269,2.991,386.108
1.224,-2.997,0.951,-163.696,-12.878,321.655
1.021,-2.952,0.797,-182.373,-30.151,245.605
1.019,-2.833,0.597,-191.162,-46.692,180.847
0.967,-2.692,0.424,-188.599,-55.054,132.507
0.935,-2.570,0.263,-177.185,-52.673,102.722
0.909,-2.460,0.218,-157.715,-39.429,87.219
1.100,-2.389,0.181,-134.705,-15.686,80.933
0.536,-2.419,0.389,-111.938,6.470,75.378
0.736,-2.027,0.369,-90.393,37.476,69.946
0.552,-2.041,0.485,-70.740,54.871,60.913
0.422,-1.767,0.563,-62.805,72.144,36.255
0.325,-1.492,0.698,-63.782,79.163,22.217
0.243,-1.276,0.813,-70.923,77.698,13.733
0.187,-1.165,0.860,-79.468,69.031,11.841
0.147,-1.139,0.835,-85.327,52.979,16.296
0.185,-1.143,0.781,-84.595,34.424,22.827
0.244,-1.149,0.700,-73.608,18.494,29.419
0.331,-1.172,0.635,-55.481,7.690,34.790
0.398,-1.196,0.571,-37.598,2.502,40.649
0.432,-1.104,0.497,-24.231,4.150,47.241
0.442,-1.059,0.501,-15.381,8.484,49.133
0.459,-1.016,0.500,-13.062,13.245,44.495
0.455,-0.988,0.514,-17.456,16.785,37.537
0.432,-1.000,0.535,-24.170,16.418,28.381
0.424,-1.032,0.535,-27.161,10.620,17.944
0.445,-1.023,0.543,-24.902,-0.977,8.911
0.467,-1.046,0.521,-16.418,-12.451,3.174
0.520,-1.001,0.494,-6.775,-18.311,2.258
0.493,-0.944,0.434,1.709,-19.043,3.357
0.534,-0.950,0.412,10.071,-16.479,4.456
0.548,-0.950,0.397,15.137,-12.329,5.615
0.560,-0.970,0.386,18.738,-7.202,4.700
0.571,-0.983,0.391,20.996,-2.747,2.747
0.554,-0.956,0.390,19.775,1.526,0.122
0.531,-0.896,0.401,15.747,4.822,-5.310
0.519,-0.845,0.431,10.559,6.897,-12.207
0.497,-0.798,0.449,4.578,8.240,-17.029
0.477,-0.765,0.476,1.038,8.301,-18.860
0.461,-0.747,0.506,-0.305,6.348,-18.494
0.447,-0.724,0.505,-0.793,3.906,-15.747
0.445,-0.741,0.501,-0.061,0.854,-12.085
0.460,-0.753,0.486,1.099,-1.282,-8.423
0.440,-0.791,0.476,3.601,-1.465,-6.287
0.478,-0.802,0.470,8.057,-0.244,-3.174
0.476,-0.789,0.454,12.268,1.221,-0.793
0.489,-0.783,0.456,13.916,3.540,-0.732
0.490,-0.775,0.458,13.123,6.104,-2.197
0.491,-0.785,0.468,11.414,7.324,-3.845
0.479,-0.771,0.469,9.583,6.775,-5.249
0.478,-0.756,0.474,7.751,5.127,-6.653
0.470,-0.753,0.480,5.371,2.686,-8.301
0.462,-0.745,0.478,2.808,-0.183,-9.460
0.457,-0.734,0.480,1.953,-2.563,-10.620
0.458,-0.740,0.482,2.258,-3.540,-10.864
0.453,-0.723,0.473,3.174,-3.601,-9.277
0.451,-0.709,0.471,4.761,-2.319,-7.385
0.455,-0.720,0.475,5.981,-0.671,-5.798
0.452,-0.740,0.472,5.676,0.122,-3.357
0.461,-0.764,0.465,5.493,-0.122,-1.892
0.471,-0.778,0.453,6.714,-0.244,-1.892
0.473,-0.781,0.441,7.629,-0.793,-2.197
0.477,-0.782,0.434,8.179,-0.854,-2.258
0.485,-0.799,0.436,7.874,-0.854,-3.113
0.475,-0.797,0.432,7.385,-0.549,-4.150
0.466,-0.782,0.430,7.690,-0.122,-6.042
0.463,-0.760,0.443,7.996,-0.366,-7.019
0.461,-0.756,0.448,7.446,-0.671,-7.080
0.450,-0.750,0.445,6.470,-0.610,-6.226
0.444,-0.759,0.447,5.920,-1.099,-5.615
0.442,-0.766,0.446,5.920,-1.831,-5.066
0.443,-0.764,0.450,6.470,-2.258,-4.395
0.445,-0.768,0.447,6.653,-2.686,-3.601
0.451,-0.785,0.441,6.104,-3.052,-3.174
0.463,-0.809,0.427,5.554,-3.357,-2.625
0.475,-0.828,0.413,6.104,-3.357,-3.174
0.480,-0.820,0.397,7.202,-2.502,-3.357
0.486,-0.822,0.398,8.911,-1.099,-3.601
0.481,-0.814,0.399,9.888,-0.122,-3.784
0.468,-0.803,0.404,10.803,0.610,-4.150
0.454,-0.771,0.414,11.108,0.916,-5.066
0.454,-0.776,0.433,10.315,1.648,-6.470
0.437,-0.775,0.438,8.118,1.770,-6.042
0.430,-0.771,0.445,6.470,1.648,-5.737
0.429,-0.766,0.446,5.127,0.427,-5.859
0.437,-0.775,0.439,3.723,-1.404,-5.188
0.444,-0.794,0.419,2.502,-2.136,-4.272
0.450,-0.804,0.408,2.441,-2.197,-4.272
0.455,-0.801,0.403,3.113,-1.953,-4.639
0.459,-0.783,0.402,3.601,-1.587,-4.822
0.463,-0.775,0.409,2.930,-0.854,-4.944
0.460,-0.775,0.410,1.343,0.305,-4.578
0.457,-0.775,0.417,-0.061,1.343,-3.601
0.456,-0.778,0.421,-0.549,1.282,-3.906
0.458,-0.784,0.419,-0.610,0.793,-3.845
0.456,-0.785,0.412,-0.671,0.305,-3.540
0.456,-0.788,0.404,-0.427,0.000,-3.113
0.451,-0.778,0.403,0.671,-0.610,-2.930
0.453,-0.776,0.416,1.282,-0.549,-2.563
0.446,-0.779,0.424,0.610,0.061,-1.770
0.435,-0.794,0.427,-0.061,0.610,-0.916
0.431,-0.810,0.423,0.427,0.549,-0.488
0.432,-0.818,0.424,1.343,-0.183,-0.732
0.440,-0.813,0.422,2.014,-1.221,-1.221
0.451,-0.834,0.414,1.953,-1.892,-1.526
0.452,-0.838,0.404,1.343,-2.258,-2.014
0.457,-0.830,0.403,1.282,-1.648,-3.723
0.462,-0.817,0.406,1.221,-0.183,-5.249
0.465,-0.818,0.419,0.366,1.465,-5.249
0.467,-0.822,0.453,-1.160,3.235,-4.578
0.412,-0.799,0.403,-2.136,5.005,-3.357
1.348,-1.726,1.024,-177.551,25.024,472.229
1.422,-1.928,1.101,-177.246,38.940,470.276
1.530,-2.081,1.212,-173.950,49.866,463.745
1.590,-2.131,1.315,-173.218,55.115,454.346
1.578,-2.285,1.445,-169.983,47.058,434.509
1.532,-2.453,1.620,-165.405,21.057,406.921
1.459,-2.535,1.694,-165.833,-6.104,376.038
1.347,-2.620,1.625,-171.326,-27.466,341.125
1.239,-2.632,1.448,-172.180,-45.959,306.213
1.244,-2.609,1.231,-162.170,-61.279,274.841
1.274,-2.514,0.977,-146.057,-70.862,251.038
1.298,-2.445,0.761,-129.395,-71.899,233.215
1.246,-2.376,0.579,-114.502,-61.646,215.881
0.942,-2.473,0.568,-99.182,-48.096,194.824
1.163,-2.224,0.476,-84.656,-23.987,173.035
0.987,-2.552,0.413,-71.350,-4.456,148.865
0.827,-2.407,0.388,-67.627,15.869,114.929
0.747,-2.274,0.453,-62.805,27.344,94.238
0.634,-2.097,0.512,-50.781,31.311,71.838
0.543,-1.871,0.547,-39.673,32.959,46.814
0.498,-1.621,0.592,-37.598,33.264,21.851
0.492,-1.383,0.646,-45.349,30.640,3.296
0.402,-1.259,0.603,-57.129,23.621,-8.240
0.392,-1.218,0.601,-64.880,14.160,-12.390
0.390,-1.208,0.582,-65.430,4.211,-9.766
0.396,-1.228,0.560,-58.899,-2.808,-4.456
0.434,-1.262,0.523,-46.997,-5.981,0.854
0.424,-1.263,0.502,-30.945,-7.629,6.775
0.472,-1.251,0.459,-11.414,-7.202,11.719
0.480,-1.211,0.425,4.517,-6.287,12.634
0.517,-1.143,0.415,11.475,-4.883,8.484
0.535,-1.099,0.411,11.536,-4.395,0.122
0.552,-1.031,0.401,5.798,-3.784,-10.254
0.566,-0.984,0.403,-1.831,-3.906,-21.545
0.558,-0.919,0.416,-7.507,-4.089,-30.823
0.549,-0.860,0.404,-9.827,-3.235,-36.987
0.543,-0.820,0.424,-9.155,-2.197,-38.635
0.524,-0.784,0.433,-6.531,-0.366,-36.255
0.506,-0.751,0.454,-2.075,1.282,-31.128
0.499,-0.717,0.455,2.625,1.770,-25.085
0.487,-0.722,0.467,7.751,1.770,-19.226
0.480,-0.708,0.449,12.024,0.977,-14.038
0.484,-0.693,0.452,14.221,0.183,-11.169
0.488,-0.685,0.448,12.817,0.305,-10.925
0.487,-0.686,0.441,8.606,0.916,-11.963
0.481,-0.688,0.441,4.089,0.916,-14.099
0.476,-0.708,0.451,0.061,0.732,-16.785
0.464,-0.712,0.451,-2.197,0.366,-18.066
0.455,-0.694,0.455,-2.502,-0.488,-18.982
0.445,-0.698,0.467,-2.075,-0.916,-19.409
0.433,-0.681,0.467,-1.709,-0.854,-18.433
0.427,-0.679,0.471,-0.610,-0.610,-16.968
0.424,-0.698,0.476,0.732,-0.549,-14.282
0.415,-0.713,0.479,2.075,-0.366,-11.108
0.422,-0.735,0.482,4.700,-0.916,-8.972
0.431,-0.749,0.475,7.080,-1.465,-7.324
0.445,-0.759,0.465,8.179,-2.075,-7.080
0.456,-0.764,0.452,7.751,-2.930,-7.751
0.467,-0.773,0.443,5.798,-3.479,-9.155
0.471,-0.778,0.437,2.930,-3.601,-11.292
0.474,-0.770,0.439,0.427,-3.052,-13.855
0.465,-0.766,0.451,-1.892,-1.160,-15.686
0.451,-0.759,0.456,-4.272,0.977,-16.174
0.447,-0.770,0.474,-4.272,2.686,-16.357
0.431,-0.756,0.477,-3.357,3.723,-15.076
0.424,-0.740,0.488,-2.014,4.150,-13.489
0.419,-0.746,0.493,-1.282,3.784,-11.536
0.409,-0.749,0.491,-0.122,2.563,-8.972
0.412,-0.732,0.488,1.892,0.977,-7.263
0.413,-0.717,0.484,2.258,0.061,-6.653
0.411,-0.708,0.478,0.732,-0.305,-6.287
0.415,-0.726,0.485,-1.282,-1.160,-6.592
0.421,-0.735,0.487,-3.296,-1.404,-7.080
0.423,-0.746,0.490,-5.615,-0.732,-7.141
0.423,-0.763,0.483,-7.690,0.732,-7.019
0.414,-0.774,0.476,-8.789,1.770,-7.019
0.414,-0.772,0.478,-8.118,2.380,-7.568
0.412,-0.741,0.492,-5.798,2.930,-7.507
0.411,-0.747,0.501,-5.066,2.747,-6.226
0.394,-0.748,0.501,-3.723,2.441,-3.906
0.395,-0.757,0.512,-1.587,1.404,-1.953
0.394,-0.762,0.511,-0.122,0.061,0.122
0.399,-0.780,0.505,0.366,-1.404,1.953
0.404,-0.796,0.504,0.183,-2.258,1.770
0.408,-0.790,0.498,-0.122,-2.075,0.610
0.419,-0.791,0.493,-0.671,-1.160,-0.183
0.423,-0.800,0.489,-2.258,-1.038,-0.183
0.425,-0.803,0.485,-3.174,-0.793,-0.793
0.426,-0.815,0.491,-2.991,-0.183,-1.953
0.419,-0.807,0.492,-2.686,-0.366,-2.502
0.420,-0.810,0.494,-1.648,-0.610,-2.991
0.415,-0.807,0.495,-1.038,-0.366,-2.747
0.408,-0.791,0.497,-0.183,-0.488,-2.502
0.406,-0.789,0.503,1.282,-0.488,-2.686
0.401,-0.769,0.506,1.831,-0.488,-1.892
0.399,-0.767,0.510,2.319,-0.488,-1.221
0.395,-0.759,0.514,2.197,-0.854,-0.427
0.397,-0.769,0.513,1.892,-1.709,0.488
0.404,-0.785,0.502,1.221,-3.296,0.793
0.412,-0.795,0.493,0.732,-4.272,0.732
0.424,-0.812,0.482,0.183,-4.456,0.183
0.428,-0.802,0.463,-0.122,-4.639,-0.366
0.431,-0.795,0.456,0.122,-4.150,-1.526
0.434,-0.793,0.468,0.061,-2.747,-2.747
0.424,-0.787,0.474,-0.305,-1.221,-3.174
0.416,-0.790,0.480,-0.427,-0.732,-2.747
0.414,-0.799,0.489,0.366,-1.160,-2.075
0.412,-0.805,0.489,1.343,-1.831,-1.465
0.414,-0.800,0.486,2.197,-2.502,-1.221
0.428,-0.814,0.499,2.197,-2.930,-1.221
0.403,-0.798,0.469,0.916,-2.808,-0.610
0.422,-0.822,0.483,1.282,-3.357,-0.732
0.418,-0.818,0.473,1.282,-3.540,-1.953
0.423,-0.811,0.470,1.465,-3.418,-3.296
0.423,-0.809,0.466,1.221,-2.869,-4.150
0.418,-0.794,0.465,0.549,-1.953,-4.028
0.446,-0.800,0.476,0.549,-1.038,-4.456
0.364,-0.770,0.474,0.061,-0.122,-4.700
0.399,-0.808,0.489,0.549,0.061,-4.272
0.859,-2.349,1.107,-219.360,105.469,381.775
0.791,-2.346,1.156,-171.143,107.971,416.504
0.744,-2.241,1.247,-132.141,99.487,438.721
0.765,-2.174,1.363,-115.967,79.529,439.514
0.769,-2.116,1.460,-124.634,49.805,408.142
0.779,-2.114,1.570,-156.921,16.479,350.525
0.817,-2.186,1.606,-206.421,-0.366,282.532
0.780,-2.358,1.537,-250.183,-1.038,222.900
0.746,-2.470,1.406,-266.113,3.845,183.228
0.723,-2.461,1.292,-250.061,4.944,164.124
0.729,-2.414,1.182,-214.355,4.822,160.095
0.439,-2.404,1.214,-169.922,-1.892,164.062
0.771,-2.109,0.960,-126.953,-0.488,172.668
0.630,-2.384,0.816,-86.060,-3.174,183.472
0.597,-2.255,0.691,-54.260,-2.441,172.424
0.615,-2.166,0.583,-35.828,5.737,167.847
0.577,-2.069,0.538,-18.066,13.977,159.180
0.520,-2.023,0.497,-5.188,20.142,143.188
0.474,-1.942,0.510,2.197,23.010,116.943
0.435,-1.735,0.539,1.465,25.513,85.632
0.382,-1.539,0.572,-6.531,28.931,50.842
0.332,-1.375,0.608,-22.522,31.433,16.724
0.332,-1.237,0.654,-42.786,30.823,-8.972
0.250,-1.132,0.645,-60.120,27.466,-25.391
0.259,-1.045,0.643,-68.726,22.766,-31.738
0.258,-1.016,0.643,-68.726,17.029,-31.067
0.269,-1.004,0.623,-61.523,11.414,-24.780
0.278,-1.031,0.599,-46.509,5.737,-13.733
0.295,-1.042,0.579,-24.780,-1.038,-0.916
0.321,-1.009,0.553,-2.930,-6.592,11.169
0.378,-0.980,0.538,13.306,-9.216,18.005
0.365,-0.921,0.477,20.569,-9.338,20.142
0.425,-0.907,0.476,21.423,-8.118,17.029
0.432,-0.871,0.459,15.259,-6.104,9.766
0.426,-0.866,0.484,4.761,-3.418,-0.916
0.435,-0.850,0.492,-6.470,-0.244,-10.620
0.412,-0.846,0.501,-13.733,1.343,-18.250
0.394,-0.841,0.510,-15.564,1.953,-23.254
0.385,-0.797,0.531,-13.489,1.709,-23.621
0.372,-0.777,0.537,-8.301,0.427,-20.508
0.369,-0.765,0.540,-2.441,-1.343,-15.320
0.375,-0.760,0.527,3.113,-4.211,-9.644
0.395,-0.790,0.521,8.057,-6.042,-5.310
0.404,-0.807,0.488,11.597,-6.836,-1.282
0.413,-0.806,0.468,14.343,-6.714,0.671
0.436,-0.806,0.460,14.954,-5.798,-0.732
0.435,-0.783,0.453,10.681,-3.235,-3.357
0.439,-0.777,0.454,4.761,-0.305,-7.812
0.442,-0.778,0.485,-0.061,2.136,-12.512
0.402,-0.776,0.465,-3.113,3.479,-15.747
0.414,-0.783,0.504,-3.052,3.540,-15.381
0.393,-0.778,0.497,-1.160,2.686,-12.817
0.385,-0.778,0.508,2.563,1.953,-9.521
0.378,-0.776,0.511,5.859,0.732,-6.714
0.365,-0.770,0.505,7.996,0.061,-4.211
0.364,-0.762,0.507,10.132,-0.671,-2.991
0.364,-0.762,0.511,11.230,-0.732,-2.258
0.364,-0.769,0.508,10.742,-0.854,-1.648
0.369,-0.764,0.506,10.010,-1.221,-1.770
0.374,-0.760,0.506,8.423,-1.831,-3.784
0.377,-0.758,0.503,5.371,-2.136,-6.287
0.381,-0.749,0.503,1.587,-1.587,-7.874
0.379,-0.760,0.503,-1.221,-0.549,-9.338
0.374,-0.760,0.508,-2.441,0.366,-8.728
0.366,-0.767,0.517,-1.831,0.610,-6.653
0.366,-0.768,0.525,-0.061,0.000,-4.333
0.368,-0.771,0.529,1.831,-0.610,-1.648
0.370,-0.769,0.527,2.808,-0.732,1.099
0.378,-0.781,0.512,4.211,-0.305,2.930
0.389,-0.795,0.502,6.958,0.061,3.784
0.396,-0.789,0.498,10.010,0.183,4.517
0.404,-0.793,0.495,11.719,0.610,4.333
0.402,-0.792,0.493,11.169,1.526,3.357
0.397,-0.777,0.492,9.766,2.136,0.671
0.396,-0.762,0.501,7.324,2.380,-3.601
0.392,-0.768,0.504,2.747,2.808,-6.897
0.378,-0.777,0.500,-2.014,2.747,-8.484
0.373,-0.786,0.498,-2.747,2.136,-9.888
0.369,-0.788,0.505,-0.305,1.465,-9.216
0.368,-0.767,0.506,2.563,0.427,-6.775
0.370,-0.765,0.509,5.249,-0.488,-4.272
0.376,-0.775,0.508,7.019,-0.671,-2.197
0.372,-0.780,0.500,8.240,0.183,-0.122
0.373,-0.785,0.501,9.521,0.671,1.343
0.374,-0.796,0.501,11.108,0.916,2.502
0.371,-0.785,0.498,11.536,0.916,3.601
0.376,-0.775,0.496,10.925,0.671,3.235
0.376,-0.783,0.499,8.789,-0.061,1.099
0.369,-0.793,0.497,5.066,-1.465,-0.793
0.367,-0.791,0.501,2.319,-2.930,-3.479
0.373,-0.803,0.501,0.732,-3.052,-5.981
0.374,-0.808,0.496,-0.427,-2.869,-6.042
0.377,-0.814,0.493,0.366,-2.625,-4.761
0.376,-0.807,0.491,2.808,-1.831,-3.296
0.375,-0.806,0.487,5.127,-0.488,-0.610
0.367,-0.794,0.488,6.836,0.244,1.648
0.371,-0.809,0.496,8.179,0.671,2.380
0.365,-0.804,0.494,8.911,0.854,3.052
0.367,-0.805,0.500,9.705,-0.183,3.113
0.370,-0.806,0.493,9.521,-1.587,2.380
0.376,-0.794,0.487,8.118,-2.869,1.465
0.380,-0.786,0.478,6.226,-3.845,-0.183
0.384,-0.786,0.476,4.028,-4.089,-2.502
0.388,-0.784,0.473,2.075,-3.052,-4.211
0.391,-0.777,0.474,1.221,-1.953,-4.883
0.389,-0.778,0.472,1.404,-0.977,-4.395
0.388,-0.781,0.476,2.258,-0.549,-2.869
0.388,-0.787,0.482,3.174,-0.488,-1.404
0.384,-0.794,0.479,3.296,-0.427,-0.427
0.376,-0.790,0.472,2.808,-0.916,-0.549
0.375,-0.801,0.476,2.441,-1.465,-1.099
0.372,-0.805,0.474,2.258,-1.892,-2.014
0.375,-0.801,0.479,2.930,-2.014,-2.258
0.375,-0.788,0.483,3.967,-2.258,-2.319
0.377,-0.770,0.488,3.845,-2.014,-2.075
0.378,-0.774,0.481,2.747,-0.793,-1.770
0.375,-0.781,0.475,1.465,0.061,-0.244
0.371,-0.790,0.477,1.404,0.061,0.305
0.376,-0.799,0.485,2.136,0.366,0.793
1.354,-1.900,0.802,-261.108,58.838,326.538
1.317,-1.869,0.840,-246.399,60.913,326.050
1.278,-1.840,0.898,-226.562,66.589,329.285
1.252,-1.846,1.006,-211.487,73.425,330.688
1.252,-1.870,1.098,-205.200,81.543,330.078
1.169,-1.944,1.164,-202.942,86.731,323.792
1.086,-2.055,1.173,-197.571,86.731,310.608
1.002,-2.117,1.171,-181.274,72.388,291.260
0.933,-2.118,1.075,-154.907,47.485,268.982
0.849,-2.095,0.882,-122.559,16.418,247.925
0.859,-2.071,0.758,-90.149,-17.639,230.042
0.961,-2.036,0.651,-63.171,-46.021,215.576
0.979,-1.949,0.519,-44.861,-60.425,202.820
0.962,-1.913,0.326,-33.752,-59.021,186.340
0.910,-1.881,0.232,-31.616,-48.645,164.124
0.851,-1.866,0.222,-37.170,-31.555,137.024
0.800,-1.866,0.195,-47.791,-9.399,106.628
0.680,-1.865,0.253,-54.871,7.996,75.928
0.631,-1.831,0.356,-53.162,19.775,50.720
0.606,-1.661,0.441,-44.678,24.048,33.936
0.540,-1.540,0.450,-30.579,30.640,19.470
0.492,-1.379,0.522,-15.503,33.081,6.470
0.442,-1.204,0.572,-5.066,32.898,0.061
0.411,-1.051,0.608,-1.770,30.334,1.221
0.364,-0.965,0.633,-4.089,25.330,5.310
0.347,-0.906,0.623,-9.460,20.142,11.047
0.353,-0.897,0.596,-13.123,13.245,17.700
0.359,-0.916,0.582,-12.878,4.761,22.339
0.393,-0.954,0.529,-8.667,-4.395,24.780
0.442,-0.978,0.510,-3.967,-11.414,24.963
0.461,-0.990,0.438,0.183,-17.334,25.757
0.514,-0.992,0.386,5.615,-21.240,26.184
0.496,-1.010,0.400,11.597,-25.269,25.330
0.547,-0.964,0.360,13.916,-24.536,22.156
0.555,-0.975,0.333,13.245,-19.165,17.761
0.539,-0.946,0.324,10.742,-13.611,10.315
0.567,-0.942,0.338,6.470,-7.751,2.747
0.562,-0.939,0.356,1.892,-2.502,-2.625
0.545,-0.921,0.370,-1.404,1.709,-4.089
0.523,-0.899,0.367,-2.563,3.967,-3.540
0.508,-0.881,0.379,-1.465,3.662,-3.296
0.500,-0.868,0.383,-0.244,2.258,-3.357
0.501,-0.854,0.371,0.427,-0.183,-3.967
0.503,-0.841,0.361,1.587,-3.113,-5.554
0.503,-0.835,0.345,2.625,-4.089,-6.897
0.528,-0.833,0.346,3.479,-4.272,-7.202
0.482,-0.815,0.323,5.127,-4.395,-7.202
0.495,-0.811,0.333,7.080,-4.395,-7.568
0.504,-0.794,0.338,7.935,-4.272,-8.301
0.509,-0.782,0.342,8.301,-3.479,-9.399
0.522,-0.768,0.344,7.935,-2.563,-10.498
0.477,-0.750,0.356,7.141,-2.197,-10.864
0.490,-0.759,0.373,6.531,-1.587,-9.155
0.494,-0.752,0.380,4.883,-0.549,-7.019
0.486,-0.764,0.380,3.052,1.465,-5.798
0.477,-0.779,0.382,1.831,3.296,-4.883
0.475,-0.796,0.383,1.404,3.845,-4.395
0.473,-0.810,0.381,2.075,3.052,-4.578
0.477,-0.803,0.381,3.174,1.465,-5.737
0.492,-0.787,0.385,3.662,0.183,-7.446
0.498,-0.787,0.396,2.502,0.366,-8.972
0.486,-0.754,0.385,0.305,0.977,-9.460
0.490,-0.766,0.398,-0.427,0.610,-9.827
0.502,-0.763,0.406,0.183,0.122,-9.644
0.483,-0.755,0.408,0.000,1.099,-9.094
0.462,-0.769,0.394,-0.122,1.526,-8.362
0.482,-0.766,0.415,0.000,1.770,-6.592
0.477,-0.777,0.410,-0.549,2.319,-5.127
0.471,-0.800,0.416,-0.793,2.686,-4.333
0.466,-0.805,0.412,-0.916,2.258,-3.784
0.468,-0.809,0.420,-0.244,1.038,-4.395
0.470,-0.801,0.421,0.427,-0.305,-5.615
0.476,-0.805,0.421,-0.244,-1.221,-6.531
0.480,-0.810,0.423,-1.587,-2.380,-7.080
0.508,-0.823,0.411,-1.953,-3.052,-7.751
0.471,-0.811,0.408,-0.488,-3.845,-8.789
0.483,-0.840,0.413,1.038,-3.967,-9.155
0.494,-0.812,0.414,1.648,-3.296,-8.606
0.468,-0.795,0.409,1.404,-1.160,-8.057
0.468,-0.787,0.411,2.075,1.099,-9.033
0.478,-0.764,0.434,1.404,3.906,-8.972
0.470,-0.763,0.442,0.122,5.920,-7.935
0.460,-0.766,0.443,-1.526,6.409,-5.798
0.449,-0.773,0.447,-1.953,4.822,-4.028
0.447,-0.793,0.449,-1.282,2.380,-3.174
0.455,-0.816,0.443,-0.732,-0.122,-2.869
0.454,-0.828,0.427,0.061,-2.319,-2.869
0.460,-0.829,0.412,1.038,-3.418,-3.418
0.469,-0.832,0.408,2.136,-3.479,-4.639
0.474,-0.828,0.413,3.601,-2.991,-5.371
0.468,-0.811,0.412,3.601,-1.099,-5.798
0.468,-0.802,0.423,2.930,1.221,-6.836
0.453,-0.787,0.417,1.526,2.747,-7.263
0.452,-0.791,0.436,0.427,3.479,-7.874
0.442,-0.797,0.440,-0.610,3.906,-7.690
0.435,-0.796,0.444,-0.305,3.418,-7.385
0.430,-0.801,0.443,0.977,1.953,-6.714
0.432,-0.797,0.445,2.502,-0.305,-5.737
0.433,-0.790,0.439,3.479,-2.075,-5.188
0.436,-0.784,0.435,3.540,-2.563,-5.188
0.439,-0.775,0.434,3.174,-2.319,-5.127
0.440,-0.767,0.432,2.319,-2.319,-5.310
0.445,-0.763,0.433,1.526,-1.892,-4.822
0.445,-0.762,0.426,-0.061,-1.282,-4.028
0.445,-0.773,0.419,-0.977,-1.587,-2.441
0.444,-0.787,0.414,-0.977,-2.197,-1.221
0.449,-0.802,0.415,-0.671,-2.563,-0.427
0.442,-0.812,0.410,-0.366,-3.052,0.183
0.447,-0.818,0.409,-0.366,-3.174,0.183
0.444,-0.816,0.404,-0.488,-3.235,-0.610
0.452,-0.810,0.405,-0.732,-3.296,-1.465
0.458,-0.805,0.405,-1.343,-3.052,-2.014
0.453,-0.809,0.402,-2.319,-2.502,-2.258
0.456,-0.832,0.396,-2.869,-2.625,-2.441
0.455,-0.827,0.388,-2.380,-2.747,-1.770
0.456,-0.845,0.387,-0.916,-3.296,-1.526
0.458,-0.844,0.395,1.099,-3.540,-1.831
0.466,-0.830,0.381,0.977,-2.319,-2.625
0.459,-0.833,0.393,1.526,-1.526,-3.479
1.159,-1.589,0.809,-38.025,53.101,511.658
1.180,-1.511,0.820,-23.560,29.602,504.883
1.276,-1.467,0.894,-35.522,7.507,487.488
1.368,-1.358,0.931,-79.041,-6.409,462.708
1.436,-1.326,0.987,-141.541,-10.193,424.866
1.446,-1.386,1.070,-205.627,-5.981,378.479
1.533,-1.481,1.148,-259.033,4.272,335.999
1.585,-1.657,1.219,-288.269,11.536,304.382
1.590,-1.841,1.303,-291.321,11.230,288.452
1.581,-1.987,1.368,-274.231,10.498,285.522
1.463,-2.074,1.435,-245.300,10.132,286.072
1.403,-2.144,1.353,-210.754,9.827,284.546
1.331,-2.200,1.252,-175.232,0.916,284.302
1.179,-2.356,1.058,-141.418,-10.437,275.574
1.595,-2.389,0.730,-116.333,-24.109,268.738
0.962,-2.617,0.692,-94.604,-42.053,254.761
0.951,-2.445,0.599,-75.623,-44.006,239.075
1.014,-2.938,0.239,-48.462,-47.791,207.947
0.906,-2.976,0.211,-35.522,-32.166,154.358
0.852,-2.687,0.327,-30.029,-3.601,104.797
0.670,-2.281,0.422,-37.231,37.170,48.828
0.566,-1.920,0.623,-47.241,62.927,-3.052
0.439,-1.629,0.760,-60.059,71.533,-39.307
0.386,-1.397,0.825,-73.914,66.711,-59.326
0.331,-1.196,0.859,-84.534,50.171,-64.209
0.325,-1.101,0.871,-88.745,29.419,-56.396
0.339,-1.041,0.826,-84.167,10.620,-37.415
0.365,-1.061,0.768,-69.580,-3.967,-14.099
0.414,-1.134,0.705,-47.913,-13.733,6.836
0.485,-1.217,0.655,-25.696,-18.555,23.987
0.544,-1.296,0.598,-7.080,-20.081,35.645
0.579,-1.394,0.546,7.935,-19.043,39.307
0.602,-1.361,0.463,18.982,-15.259,35.095
0.636,-1.320,0.478,25.940,-10.376,23.315
0.601,-1.193,0.447,25.391,-4.089,5.554
0.591,-1.063,0.488,16.846,2.747,-13.428
0.554,-0.973,0.512,3.662,7.263,-30.212
0.523,-0.902,0.530,-7.202,8.362,-41.931
0.533,-0.857,0.566,-11.658,6.042,-47.913
0.478,-0.767,0.510,-11.169,2.686,-48.523
0.482,-0.751,0.525,-5.188,-1.831,-45.105
0.488,-0.715,0.507,2.869,-4.822,-38.696
0.501,-0.701,0.499,11.292,-6.531,-30.640
0.508,-0.699,0.487,18.433,-7.263,-23.193
0.508,-0.686,0.464,21.912,-7.385,-18.433
0.511,-0.696,0.453,23.254,-6.592,-17.029
0.529,-0.696,0.452,22.888,-5.798,-18.250
0.530,-0.688,0.447,20.996,-4.089,-19.409
0.518,-0.679,0.444,18.555,-2.136,-20.630
0.513,-0.676,0.445,16.663,-0.122,-22.766
0.504,-0.680,0.462,14.526,1.953,-25.146
0.488,-0.680,0.460,12.390,3.479,-26.184
0.479,-0.667,0.463,12.146,4.150,-26.367
0.484,-0.651,0.455,12.878,3.845,-26.001
0.489,-0.660,0.465,13.428,3.723,-24.719
0.479,-0.664,0.461,13.672,3.235,-21.851
0.477,-0.664,0.458,15.137,2.258,-19.287
0.486,-0.664,0.460,17.700,1.526,-16.357
0.488,-0.653,0.464,19.653,1.404,-13.123
0.487,-0.643,0.461,19.836,2.258,-10.376
0.477,-0.637,0.458,17.578,3.662,-8.545
0.465,-0.643,0.467,12.817,5.005,-7.996
0.455,-0.643,0.474,7.080,5.615,-9.033
0.449,-0.668,0.489,1.404,5.371,-10.193
0.437,-0.697,0.492,-3.357,4.211,-10.620
0.432,-0.724,0.496,-4.883,2.625,-10.986
0.432,-0.741,0.496,-3.113,0.305,-11.414
0.444,-0.732,0.491,0.244,-1.282,-11.169
0.450,-0.713,0.484,2.869,-1.709,-10.193
0.454,-0.697,0.477,3.601,-0.488,-8.606
0.458,-0.696,0.474,3.174,1.282,-7.690
0.450,-0.709,0.480,1.953,2.625,-7.263
0.444,-0.729,0.487,0.854,2.747,-7.263
0.438,-0.745,0.494,-0.122,2.563,-7.385
0.436,-0.752,0.498,-0.671,1.160,-7.629
0.442,-0.763,0.495,-0.671,-0.183,-7.446
0.440,-0.774,0.484,-0.061,-1.221,-7.446
0.442,-0.775,0.471,0.610,-1.526,-7.446
0.442,-0.761,0.468,1.282,-1.282,-7.812
0.439,-0.754,0.474,1.404,-0.366,-8.728
0.434,-0.742,0.482,0.854,0.977,-9.399
0.431,-0.740,0.493,0.183,2.808,-8.972
0.430,-0.749,0.504,0.305,4.089,-8.362
0.421,-0.756,0.503,0.427,4.700,-7.080
0.417,-0.773,0.504,1.282,4.211,-5.432
0.417,-0.788,0.501,3.235,2.930,-3.723
0.419,-0.796,0.493,4.761,1.282,-3.113
0.423,-0.794,0.489,5.249,-0.427,-2.502
0.426,-0.785,0.486,4.761,-1.221,-3.296
0.428,-0.783,0.488,3.540,-1.587,-4.761
0.436,-0.785,0.495,1.953,-2.075,-5.676
0.435,-0.787,0.488,0.671,-2.075,-6.287
0.415,-0.792,0.487,0.183,-1.404,-6.470
0.438,-0.788,0.481,0.549,-0.671,-6.470
0.424,-0.780,0.476,1.709,1.221,-5.310
0.416,-0.785,0.489,5.188,1.770,-4.883
0.413,-0.783,0.501,6.287,1.343,-4.211
0.403,-0.781,0.500,7.202,0.427,-3.845
0.403,-0.777,0.494,6.958,-0.549,-4.395
0.409,-0.786,0.497,6.714,-1.953,-4.700
0.411,-0.795,0.491,6.470,-3.784,-4.517
0.420,-0.796,0.483,6.714,-4.761,-4.272
0.424,-0.801,0.473,6.653,-5.127,-4.761
0.424,-0.803,0.466,6.470,-5.066,-5.676
0.429,-0.799,0.464,5.981,-5.310,-6.531
0.429,-0.802,0.466,5.554,-4.822,-7.080
0.429,-0.802,0.459,4.944,-3.418,-7.324
0.425,-0.794,0.455,5.005,-2.258,-7.568
0.427,-0.787,0.461,5.676,-1.892,-7.751
0.428,-0.783,0.468,6.042,-1.587,-7.385
0.415,-0.781,0.467,5.554,-1.404,-6.958
0.407,-0.783,0.469,4.944,-1.892,-5.981
0.402,-0.792,0.472,4.395,-2.930,-5.371
0.397,-0.803,0.469,4.395,-3.906,-5.066
0.391,-0.799,0.464,4.883,-4.517,-4.822
0.401,-0.802,0.470,5.432,-5.310,-5.127
0.406,-0.792,0.467,5.249,-5.127,-5.615
0.410,-0.790,0.456,3.784,-3.601,-5.432
0.412,-0.790,0.448,2.686,-2.075,-5.310
1.358,-1.908,0.966,-66.833,36.926,612.610
1.330,-2.069,0.994,-49.438,-3.174,592.163
1.447,-2.283,1.084,-58.960,-36.377,545.410
1.518,-2.429,1.074,-99.670,-54.932,494.690
1.464,-2.456,0.992,-152.283,-57.739,443.665
1.446,-2.440,0.984,-200.317,-49.866,392.090
1.419,-2.443,0.990,-231.506,-38.391,344.910
1.371,-2.324,1.003,-243.958,-30.396,311.218
1.385,-2.175,1.072,-247.437,-23.010,289.734
1.415,-2.130,1.145,-250.488,-10.315,276.489
1.379,-2.173,1.219,-249.329,3.418,269.592
1.386,-2.302,1.279,-236.755,13.306,267.700
1.278,-2.452,1.286,-214.233,25.085,268.433
1.084,-2.693,1.400,-179.871,25.330,272.400
1.034,-2.649,1.163,-144.836,13.062,269.653
0.934,-2.651,0.949,-110.535,4.578,262.207
0.875,-2.579,0.754,-79.651,-4.944,244.385
0.711,-2.558,0.656,-60.913,-6.409,217.651
0.750,-2.329,0.506,-51.575,5.005,185.181
0.634,-2.528,0.427,-46.875,17.517,151.489
0.560,-2.394,0.375,-53.345,35.339,103.943
0.502,-2.252,0.418,-62.012,48.218,68.726
0.477,-2.049,0.506,-68.298,57.617,40.161
0.427,-1.848,0.565,-70.251,61.340,13.977
0.381,-1.606,0.652,-72.083,59.448,-8.484
0.348,-1.399,0.697,-73.975,53.345,-24.292
0.296,-1.262,0.716,-74.402,44.922,-32.410
0.272,-1.168,0.710,-70.679,35.095,-31.738
0.271,-1.138,0.706,-61.340,24.780,-23.437
0.262,-1.156,0.680,-47.546,16.479,-11.536
0.279,-1.177,0.642,-30.090,10.071,0.122
0.310,-1.164,0.612,-11.169,5.493,8.423
0.322,-1.145,0.591,2.808,3.479,12.207
0.344,-1.103,0.596,10.315,2.686,13.062
0.356,-1.087,0.577,14.648,-0.183,9.216
0.405,-1.043,0.566,15.381,-3.296,2.441
0.396,-0.995,0.548,12.085,-7.263,-5.127
0.447,-0.968,0.542,5.066,-10.254,-11.841
0.467,-0.954,0.522,-1.038,-12.268,-17.273
0.486,-0.937,0.512,-2.319,-13.306,-20.996
0.490,-0.912,0.505,1.221,-12.634,-22.522
0.516,-0.878,0.506,7.080,-10.071,-22.522
0.465,-0.837,0.487,14.343,-6.409,-22.217
0.460,-0.795,0.497,21.912,-3.906,-20.874
0.445,-0.756,0.499,26.184,-2.258,-20.020
0.433,-0.721,0.512,27.405,-1.282,-19.348
0.423,-0.712,0.526,25.330,-2.014,-18.677
0.405,-0.729,0.531,21.240,-4.822,-16.663
0.420,-0.747,0.525,17.883,-10.132,-14.465
0.406,-0.740,0.510,16.785,-15.503,-14.099
0.425,-0.726,0.484,16.296,-17.456,-13.733
0.434,-0.709,0.465,16.052,-16.541,-11.414
0.448,-0.728,0.444,15.930,-12.756,-8.972
0.451,-0.740,0.441,15.747,-6.958,-6.409
0.438,-0.758,0.446,16.113,-1.648,-4.395
0.427,-0.774,0.470,17.639,1.343,-3.174
0.411,-0.774,0.474,19.287,0.854,-2.197
0.408,-0.767,0.475,21.362,-1.892,-2.136
0.410,-0.734,0.470,22.583,-5.676,-3.113
0.423,-0.722,0.466,22.278,-8.850,-4.211
0.431,-0.717,0.453,19.714,-11.597,-4.822
0.436,-0.728,0.429,16.846,-12.329,-5.859
0.442,-0.727,0.420,14.343,-11.780,-6.836
0.438,-0.734,0.409,10.254,-9.644,-7.080
0.434,-0.753,0.402,5.432,-6.104,-7.690
0.426,-0.768,0.408,2.808,-2.380,-8.484
0.420,-0.769,0.419,3.113,0.977,-8.301
0.403,-0.769,0.431,4.822,2.441,-7.080
0.388,-0.764,0.443,7.019,1.526,-6.165
0.390,-0.753,0.455,9.216,-0.427,-6.165
0.398,-0.737,0.446,9.766,-1.465,-6.531
0.399,-0.722,0.438,9.033,-1.526,-6.592
0.401,-0.725,0.443,7.751,-1.160,-6.653
0.400,-0.729,0.441,5.981,-0.610,-6.653
0.408,-0.756,0.436,4.028,0.854,-6.958
0.417,-0.786,0.422,2.563,3.540,-7.812
0.429,-0.809,0.409,2.136,5.859,-10.071
0.437,-0.824,0.401,1.770,7.141,-12.146
0.438,-0.829,0.398,1.038,7.568,-14.648
0.440,-0.816,0.402,-1.221,7.141,-18.250
0.434,-0.794,0.415,-6.104,6.836,-21.729
0.416,-0.757,0.424,-12.756,6.714,-23.743
0.410,-0.747,0.437,-18.921,6.409,-24.902
0.389,-0.745,0.451,-23.376,6.531,-22.888
0.366,-0.758,0.467,-24.841,7.446,-18.555
0.346,-0.783,0.478,-23.010,8.301,-13.733
0.327,-0.816,0.485,-17.639,7.996,-8.606
0.320,-0.841,0.494,-9.521,6.531,-3.784
0.321,-0.861,0.501,-0.732,3.906,0.549
0.318,-0.856,0.505,7.080,0.488,4.395
0.325,-0.850,0.509,11.963,-2.808,6.470
0.335,-0.839,0.505,13.306,-4.272,7.263
0.344,-0.830,0.504,11.414,-4.333,6.470
0.354,-0.828,0.507,8.118,-3.479,5.066
0.365,-0.829,0.509,4.028,-2.075,4.333
0.383,-0.822,0.508,0.061,-1.099,4.456
0.347,-0.840,0.493,-1.465,-0.732,5.005
0.372,-0.864,0.502,-0.122,-0.427,6.042
0.367,-0.876,0.499,2.686,-0.793,6.836
0.373,-0.882,0.494,5.859,-0.793,7.446
0.369,-0.875,0.489,8.789,-1.038,7.446
0.371,-0.861,0.495,11.292,-1.221,6.897
0.368,-0.839,0.499,12.390,-1.099,5.554
0.371,-0.820,0.498,11.414,-0.977,3.723
0.376,-0.809,0.501,8.972,-1.770,1.831
0.390,-0.804,0.501,5.981,-1.892,0.793
0.392,-0.809,0.490,2.930,-1.587,0.916
0.392,-0.821,0.477,0.793,-2.014,2.808
0.392,-0.821,0.469,0.671,-2.991,4.639
0.393,-0.822,0.470,2.014,-3.357,6.348
0.388,-0.823,0.464,2.686,-3.418,7.874
0.383,-0.841,0.455,3.601,-2.808,8.545
0.381,-0.856,0.453,6.165,-2.441,7.935
0.380,-0.855,0.442,9.827,-1.770,6.287
0.388,-0.843,0.435,12.817,-1.160,4.028
0.393,-0.824,0.431,13.794,-0.977,1.404
0.404,-0.806,0.437,12.146,-1.221,-1.404
0.402,-0.796,0.439,8.484,-1.648,-3.723
0.399,-0.799,0.440,3.601,-2.808,-5.798
1.675,1.640,-0.280,-118.103,138.672,370.544
1.785,1.544,-0.159,-119.446,158.569,420.654
1.890,1.419,-0.010,-123.962,178.345,470.154
1.981,1.216,0.116,-130.676,200.378,515.198
2.018,0.973,0.269,-137.329,223.938,556.580
2.011,0.729,0.424,-145.264,247.681,594.727
2.040,0.468,0.583,-150.574,268.311,626.343
2.139,-0.028,0.854,-148.560,276.672,646.667
2.223,-0.402,1.048,-136.414,262.451,663.269
2.413,-0.830,1.321,-108.521,222.168,679.504
2.853,-1.413,1.665,-67.383,167.725,697.937
3.086,-1.660,1.935,-32.349,119.995,724.670
3.323,-1.558,2.083,-35.522,95.947,734.070
3.694,-1.705,2.509,-106.812,76.294,700.439
3.999,-2.075,3.078,-283.020,55.420,601.746
3.957,-2.939,3.466,-493.225,57.678,450.439
3.447,-3.928,3.734,-642.273,76.660,302.063
2.713,-4.000,3.710,-675.964,101.807,212.891
2.009,-4.000,3.078,-560.913,101.990,187.073
1.550,-4.000,2.510,-354.675,72.083,216.858
1.249,-4.000,2.210,-141.235,33.142,269.287
0.919,-4.000,1.572,20.874,18.188,291.199
0.611,-3.558,1.032,102.173,20.874,268.494
0.519,-3.084,0.886,110.840,26.306,205.933
0.557,-2.819,0.953,76.111,49.194,120.789
0.336,-2.657,1.099,21.851,80.811,37.537
0.226,-2.244,1.155,-26.062,103.088,-26.001
0.095,-1.930,1.324,-44.495,90.576,-70.862
-0.086,-1.506,1.403,-49.927,72.388,-98.450
-0.214,-1.031,1.390,-51.514,58.838,-93.994
-0.276,-0.763,1.265,-53.223,38.513,-69.885
-0.174,-0.732,1.112,-50.171,11.536,-39.856
0.022,-0.891,1.002,-41.138,-9.460,-4.089
0.218,-1.167,0.889,-24.963,-15.564,32.898
0.383,-1.497,0.766,0.854,-12.146,60.974
0.512,-1.726,0.648,31.006,-5.798,77.087
0.592,-1.754,0.514,52.795,0.793,77.393
0.673,-1.656,0.451,56.396,4.578,56.702
0.697,-1.520,0.409,41.382,4.578,20.081
0.685,-1.382,0.400,16.724,3.235,-17.456
0.694,-1.275,0.443,-1.526,-1.587,-46.875
0.675,-1.119,0.434,-5.737,-6.653,-63.171
0.694,-0.949,0.440,2.686,-11.597,-68.909
0.642,-0.834,0.439,15.137,-12.512,-65.552
0.635,-0.735,0.413,25.330,-13.000,-63.049
0.604,-0.615,0.370,29.053,-12.390,-58.716
0.599,-0.531,0.361,31.067,-11.658,-55.176
0.573,-0.482,0.373,29.785,-9.338,-51.270
0.536,-0.462,0.388,25.269,-6.714,-46.509
0.518,-0.479,0.425,20.935,-6.226,-41.626
0.500,-0.503,0.436,16.113,-7.446,-38.452
0.483,-0.518,0.435,12.817,-8.606,-36.804
0.486,-0.548,0.458,12.451,-10.376,-35.522
0.474,-0.528,0.458,12.085,-11.780,-32.898
0.466,-0.517,0.460,13.123,-12.085,-30.579
0.463,-0.520,0.468,15.564,-11.414,-26.917
0.461,-0.506,0.472,18.127,-10.559,-21.545
0.458,-0.503,0.478,20.630,-9.216,-16.724
0.454,-0.536,0.479,20.691,-7.629,-13.184
0.444,-0.550,0.467,18.860,-7.019,-10.193
0.438,-0.543,0.458,14.954,-6.775,-9.766
0.451,-0.560,0.471,9.460,-5.981,-12.512
0.432,-0.554,0.450,2.869,-4.028,-15.137
0.425,-0.569,0.480,-1.587,-2.197,-15.930
0.424,-0.603,0.500,-3.357,-2.930,-16.113
0.417,-0.594,0.496,-3.357,-3.357,-15.869
0.415,-0.578,0.490,-1.343,-3.540,-16.174
0.420,-0.569,0.499,1.465,-3.662,-15.625
0.404,-0.548,0.489,3.723,-2.930,-13.550
0.393,-0.550,0.507,6.653,-2.319,-10.437
0.387,-0.578,0.515,9.338,-1.526,-6.653
0.380,-0.610,0.521,11.353,-1.465,-2.380
0.377,-0.661,0.521,12.085,-1.709,0.549
0.372,-0.686,0.526,12.512,-2.258,1.160
0.373,-0.690,0.518,12.634,-2.991,0.793
0.388,-0.710,0.521,12.634,-3.723,0.671
0.386,-0.712,0.510,11.475,-4.272,1.099
0.389,-0.711,0.503,9.888,-4.639,0.244
0.384,-0.691,0.502,8.179,-4.639,-0.977
0.382,-0.701,0.508,6.287,-4.150,-0.977
0.368,-0.709,0.515,5.371,-4.517,0.183
0.359,-0.718,0.516,5.249,-5.371,2.441
0.365,-0.741,0.521,5.005,-6.104,4.578
0.372,-0.777,0.517,3.601,-6.470,5.798
0.376,-0.798,0.503,3.052,-7.141,5.493
0.379,-0.799,0.500,3.540,-8.667,3.967
0.390,-0.793,0.498,4.517,-10.315,2.869
0.402,-0.807,0.500,5.554,-10.681,3.479
0.406,-0.827,0.489,6.409,-10.437,5.188
0.400,-0.840,0.483,8.667,-10.071,5.981
0.393,-0.848,0.475,11.597,-10.132,5.737
0.397,-0.853,0.476,14.709,-10.193,5.981
0.391,-0.841,0.474,16.968,-10.254,6.226
0.398,-0.854,0.483,18.127,-10.132,5.676
0.397,-0.845,0.482,18.005,-10.437,5.127
0.385,-0.855,0.480,17.395,-10.559,4.089
0.383,-0.863,0.480,17.090,-11.963,3.235
0.383,-0.859,0.471,17.822,-14.038,3.479
0.395,-0.840,0.464,20.142,-16.418,2.930
0.357,-0.779,0.453,21.545,-17.578,1.587
0.383,-0.770,0.441,21.301,-16.663,0.610
0.393,-0.756,0.438,17.578,-13.550,2.625
0.381,-0.752,0.429,13.550,-9.644,4.578
0.385,-0.784,0.440,11.047,-5.737,4.944
0.379,-0.800,0.443,8.240,-2.625,5.371
0.377,-0.822,0.448,6.104,-0.671,5.981
0.380,-0.842,0.455,6.042,0.122,5.981
0.370,-0.827,0.463,6.348,-0.305,5.615
0.378,-0.828,0.478,7.568,-0.732,3.906
0.380,-0.818,0.486,7.019,-1.099,2.991
0.368,-0.783,0.474,5.066,-1.526,1.953
0.354,-0.741,0.473,2.319,-1.892,0.183
0.353,-0.734,0.484,-1.770,-1.404,-1.404
0.348,-0.750,0.495,-5.859,-0.366,-0.916
0.341,-0.780,0.502,-8.057,0.671,0.854
0.342,-0.798,0.505,-7.629,0.977,2.625
0.347,-0.824,0.506,-6.470,0.610,3.967
0.357,-0.847,0.500,-5.859,-0.244,4.944
0.366,-0.867,0.488,-5.066,-1.526,5.371
1.405,2.096,-0.589,-38.391,43.396,177.612
1.559,2.125,-0.484,-49.561,62.256,225.708
1.716,2.046,-0.356,-66.772,83.313,280.396
1.802,1.893,-0.219,-84.839,105.896,340.881
1.881,1.692,-0.063,-99.731,130.371,400.757
1.879,1.458,0.091,-109.680,153.992,457.031
1.824,1.181,0.201,-115.723,173.828,506.470
1.809,0.831,0.320,-113.831,188.660,550.354
1.700,0.510,0.437,-104.309,197.266,590.210
1.583,0.128,0.474,-92.957,202.209,627.991
1.447,-0.284,0.630,-67.871,197.144,665.649
1.317,-0.700,0.777,-26.306,180.908,702.515
1.189,-0.885,0.879,17.578,145.569,729.858
1.157,-0.948,0.850,38.391,104.248,738.098
1.283,-1.096,0.943,20.020,68.420,723.694
1.400,-1.156,0.942,-40.955,45.288,685.974
1.600,-1.266,1.081,-131.409,23.865,615.967
1.774,-1.650,1.339,-244.263,7.507,515.198
2.005,-2.093,1.558,-350.037,13.123,419.800
2.178,-2.681,1.840,-407.654,28.076,352.051
2.160,-3.251,2.073,-406.921,40.100,317.139
1.919,-3.460,1.937,-354.675,50.659,314.514
1.780,-3.235,1.818,-261.108,58.838,331.665
1.508,-3.087,1.696,-171.570,59.265,359.192
1.507,-3.043,1.587,-106.201,41.687,380.493
1.264,-2.972,1.424,-66.162,26.489,391.052
1.148,-2.935,1.221,-38.208,14.771,383.484
0.990,-2.775,1.133,-35.950,6.592,352.173
0.983,-2.731,0.879,-61.462,3.357,294.373
0.952,-2.753,0.801,-107.849,-6.226,211.426
0.935,-2.801,0.568,-158.875,8.850,139.465
0.798,-2.736,0.481,-169.678,22.034,90.332
0.670,-2.568,0.488,-149.231,34.302,55.603
0.500,-2.275,0.592,-114.685,47.302,29.419
0.270,-1.942,0.741,-88.806,63.232,12.329
0.235,-1.536,0.794,-74.280,74.951,0.305
0.046,-1.443,0.878,-66.406,77.332,0.061
-0.091,-1.409,0.937,-57.617,69.092,-5.493
-0.051,-1.247,0.943,-51.636,52.734,1.160
-0.031,-1.199,0.913,-43.945,32.227,13.672
0.028,-1.209,0.879,-35.400,14.771,22.400
0.133,-1.256,0.797,-27.771,4.211,26.978
0.214,-1.288,0.711,-21.606,2.563,30.151
0.278,-1.317,0.664,-14.160,4.272,30.518
0.349,-1.303,0.630,-5.554,7.446,27.832
0.344,-1.296,0.621,2.319,9.766,23.193
0.368,-1.186,0.621,6.592,12.024,13.794
0.379,-1.100,0.656,4.822,12.756,4.272
0.383,-1.046,0.675,0.305,12.024,-3.174
0.358,-1.020,0.680,-4.395,8.118,-7.507
0.356,-1.033,0.672,-5.554,2.319,-10.986
0.338,-0.990,0.646,-1.343,-3.906,-13.916
0.360,-0.921,0.629,5.493,-9.766,-15.747
0.365,-0.832,0.609,10.864,-12.817,-15.503
0.369,-0.757,0.577,13.000,-11.475,-13.916
0.370,-0.718,0.575,14.709,-10.193,-12.451
0.353,-0.724,0.590,13.245,-6.470,-9.338
0.330,-0.720,0.567,10.925,-3.174,-5.676
0.336,-0.727,0.578,11.475,-2.075,-3.357
0.340,-0.740,0.578,11.292,-0.610,-2.136
0.316,-0.720,0.561,10.620,0.427,-1.648
0.335,-0.727,0.564,11.536,-1.282,-3.296
0.352,-0.730,0.557,11.414,-3.296,-4.333
0.359,-0.715,0.543,10.132,-4.700,-2.808
0.373,-0.715,0.534,8.972,-5.615,-0.977
0.386,-0.745,0.522,8.362,-5.554,0.916
0.381,-0.750,0.501,7.996,-5.920,2.441
0.384,-0.720,0.482,7.446,-6.470,1.099
0.401,-0.703,0.486,5.371,-5.554,-3.113
0.383,-0.727,0.500,2.014,-2.625,-5.554
0.391,-0.707,0.504,-0.732,-2.808,-6.348
0.399,-0.713,0.500,-1.831,-3.967,-6.348
0.409,-0.701,0.477,-0.793,-5.371,-5.249
0.415,-0.720,0.465,3.052,-6.470,-4.150
0.421,-0.700,0.460,7.629,-7.385,-2.075
0.421,-0.693,0.458,11.108,-7.202,-0.793
0.416,-0.680,0.458,11.841,-5.676,-0.305
0.408,-0.676,0.461,10.559,-3.540,-0.183
0.406,-0.682,0.475,8.362,-1.099,-0.854
0.405,-0.700,0.491,6.042,1.160,-1.709
0.391,-0.692,0.495,4.272,2.258,-1.526
0.388,-0.655,0.497,2.930,1.953,-1.465
0.403,-0.677,0.514,1.587,0.732,-0.916
0.397,-0.710,0.502,-0.244,-0.916,1.831
0.406,-0.739,0.495,0.732,-3.174,4.028
0.414,-0.736,0.485,2.686,-4.639,5.249
0.415,-0.727,0.479,3.723,-4.150,6.897
0.405,-0.715,0.490,3.479,-2.502,7.385
0.392,-0.712,0.502,1.465,-0.671,6.714
0.386,-0.739,0.513,-0.244,1.587,6.104
0.387,-0.773,0.523,-0.305,2.869,6.714
0.386,-0.793,0.523,2.075,2.380,8.118
0.388,-0.768,0.514,5.066,0.854,9.094
0.402,-0.759,0.509,6.531,-0.061,8.484
0.405,-0.757,0.505,5.981,-0.183,7.507
0.393,-0.740,0.502,4.089,-0.183,6.470
0.396,-0.753,0.525,1.770,-0.305,4.883
0.383,-0.781,0.538,-1.099,-0.610,4.150
0.378,-0.796,0.544,-2.197,-1.282,4.456
0.366,-0.818,0.543,-0.793,-2.136,4.395
0.362,-0.792,0.539,0.366,-2.014,4.211
0.360,-0.779,0.538,1.221,-1.892,3.235
0.362,-0.771,0.547,0.977,-1.892,2.075
0.363,-0.771,0.551,0.244,-2.563,0.854
0.367,-0.774,0.552,0.427,-3.418,-0.305
0.383,-0.780,0.555,0.916,-4.517,0.244
0.388,-0.792,0.545,1.282,-5.981,1.343
0.393,-0.800,0.527,1.526,-7.385,2.136
0.408,-0.814,0.517,2.563,-8.606,2.197
0.414,-0.817,0.513,2.869,-9.155,1.892
0.420,-0.828,0.507,2.380,-8.484,1.953
0.413,-0.847,0.498,2.502,-6.531,2.747
0.423,-0.852,0.505,3.540,-5.127,2.869
0.396,-0.872,0.520,5.615,-4.089,2.197
0.380,-0.862,0.513,7.812,-2.502,2.197
0.384,-0.854,0.534,9.399,-1.892,2.869
0.366,-0.840,0.531,9.583,-1.892,3.174
0.377,-0.840,0.539,10.193,-1.953,2.808
0.338,-0.837,0.545,10.864,-2.808,2.075
1.774,-2.283,1.076,-103.271,15.381,520.386
1.702,-2.249,0.973,-109.497,19.043,523.682
1.644,-2.218,0.929,-126.465,23.376,493.774
1.550,-2.218,0.960,-156.860,27.710,442.688
1.479,-2.149,0.990,-199.585,35.217,386.169
1.380,-2.109,1.047,-242.310,40.283,329.346
1.306,-2.098,1.193,-275.879,41.504,275.635
1.190,-2.107,1.269,-297.485,43.091,234.558
1.123,-2.133,1.292,-301.819,46.509,208.801
1.069,-2.080,1.295,-284.973,51.453,198.059
1.066,-2.103,1.375,-260.071,56.885,195.862
0.887,-2.156,1.285,-230.408,66.345,197.998
0.788,-2.158,1.341,-196.899,71.167,199.768
0.647,-2.167,1.241,-162.964,73.303,202.942
0.514,-2.155,1.162,-124.207,66.223,201.660
0.476,-2.088,1.085,-82.153,51.453,196.472
0.418,-2.015,0.992,-47.119,36.438,185.242
0.445,-1.973,0.925,-20.752,24.780,169.189
0.296,-1.839,0.821,-6.592,16.724,151.978
0.256,-1.760,0.837,-1.709,10.010,132.324
0.262,-1.676,0.778,-5.493,17.029,113.831
0.218,-1.659,0.786,-7.324,13.489,85.205
0.260,-1.485,0.765,-15.259,13.306,64.026
0.307,-1.339,0.790,-18.433,8.850,55.786
0.357,-1.229,0.812,-18.677,4.333,53.040
0.409,-1.181,0.820,-16.663,1.526,54.443
0.460,-1.205,0.815,-12.695,-2.808,59.204
0.467,-1.242,0.753,-8.362,-7.385,66.284
0.502,-1.313,0.664,-1.831,-11.902,74.463
0.528,-1.387,0.599,5.981,-16.663,78.613
0.511,-1.399,0.544,10.193,-18.982,72.693
0.543,-1.418,0.482,9.827,-15.625,55.725
0.557,-1.361,0.483,4.333,-8.972,30.212
0.506,-1.290,0.488,-2.197,-2.625,4.883
0.489,-1.192,0.525,-7.996,3.784,-15.381
0.457,-1.038,0.552,-11.230,7.019,-27.283
0.450,-0.928,0.592,-10.925,6.104,-30.884
0.370,-0.864,0.573,-8.911,1.221,-27.466
0.395,-0.835,0.598,-4.456,-4.395,-19.348
0.393,-0.803,0.547,2.625,-9.583,-10.864
0.429,-0.808,0.534,11.719,-14.648,-4.883
0.457,-0.778,0.505,15.747,-16.785,-1.038
0.481,-0.794,0.501,15.930,-15.808,-0.488
0.482,-0.808,0.483,14.099,-13.306,-2.136
0.492,-0.813,0.474,12.268,-11.108,-5.676
0.503,-0.823,0.491,9.949,-8.057,-10.132
0.492,-0.805,0.488,6.775,-3.479,-14.893
0.469,-0.781,0.501,6.287,-0.061,-19.409
0.458,-0.751,0.541,7.996,0.916,-22.400
0.432,-0.685,0.532,9.094,0.366,-22.827
0.428,-0.664,0.563,9.583,-1.282,-22.400
0.423,-0.646,0.560,7.263,-3.540,-21.362
0.413,-0.654,0.549,4.700,-6.226,-19.287
0.428,-0.665,0.536,3.113,-8.850,-17.029
0.441,-0.671,0.524,3.052,-10.559,-14.709
0.460,-0.692,0.515,4.517,-10.681,-11.719
0.458,-0.691,0.491,4.944,-9.583,-8.423
0.465,-0.680,0.487,5.127,-7.568,-7.019
0.483,-0.684,0.506,3.906,-4.333,-7.202
0.429,-0.659,0.496,-0.122,0.061,-7.385
0.443,-0.687,0.513,-3.540,3.357,-7.935
0.426,-0.710,0.518,-5.432,4.456,-8.789
0.425,-0.726,0.523,-5.310,3.967,-8.850
0.414,-0.739,0.522,-4.211,2.747,-8.789
0.403,-0.734,0.521,-3.052,1.831,-9.338
0.393,-0.715,0.516,-1.343,0.854,-10.132
0.393,-0.697,0.528,0.000,-0.061,-10.010
0.391,-0.679,0.532,0.122,-0.977,-8.484
0.389,-0.682,0.532,-0.183,-1.587,-7.446
0.391,-0.681,0.529,-1.221,-2.563,-6.836
0.407,-0.699,0.534,-2.625,-3.052,-6.042
0.414,-0.722,0.522,-3.845,-2.319,-5.188
0.423,-0.745,0.520,-3.906,-0.549,-4.944
0.427,-0.737,0.514,-2.686,1.160,-4.517
0.422,-0.745,0.523,-1.343,1.587,-3.967
0.418,-0.755,0.529,-0.366,1.282,-3.540
0.414,-0.757,0.524,0.854,0.366,-3.418
0.425,-0.768,0.535,2.075,-0.916,-3.540
0.426,-0.774,0.524,1.953,-1.221,-3.723
0.426,-0.788,0.516,0.916,-0.549,-3.967
0.420,-0.782,0.510,-0.183,0.366,-4.395
0.417,-0.776,0.514,-0.671,1.831,-5.798
0.416,-0.766,0.521,-1.038,3.967,-6.470
0.403,-0.755,0.527,-1.709,5.554,-6.470
0.400,-0.753,0.542,-2.136,5.493,-6.470
0.388,-0.757,0.547,-2.747,4.150,-5.859
0.380,-0.761,0.547,-2.808,2.197,-4.761
0.381,-0.764,0.547,-2.136,-0.305,-4.211
0.382,-0.770,0.540,-1.526,-2.563,-3.174
0.377,-0.781,0.530,-1.282,-3.662,-2.441
0.388,-0.787,0.525,-0.977,-4.089,-2.747
0.397,-0.793,0.525,-0.427,-3.479,-3.357
0.398,-0.793,0.526,0.244,-1.648,-4.272
0.395,-0.784,0.535,1.343,-0.122,-5.127
0.397,-0.768,0.540,2.014,1.343,-5.737
0.392,-0.767,0.555,2.136,2.014,-5.981
0.388,-0.758,0.564,1.709,1.831,-6.531
0.394,-0.751,0.572,1.465,1.099,-6.836
0.388,-0.744,0.568,0.122,0.000,-6.409
0.385,-0.749,0.559,-1.160,-2.258,-5.249
0.393,-0.762,0.555,-1.221,-4.639,-4.578
0.399,-0.767,0.534,0.061,-6.042,-4.150
0.402,-0.754,0.517,1.526,-6.897,-3.601
0.418,-0.741,0.512,2.869,-7.446,-3.296
0.421,-0.743,0.516,3.357,-5.920,-2.197
0.414,-0.756,0.514,3.296,-3.357,-1.343
0.410,-0.781,0.517,4.211,-0.732,-0.916
0.403,-0.793,0.517,5.737,0.366,-0.977
0.394,-0.779,0.509,7.202,0.549,-1.587
0.405,-0.763,0.513,7.385,0.366,-3.113
0.408,-0.746,0.520,5.371,1.038,-4.150
0.401,-0.736,0.518,1.282,1.404,-4.883
0.391,-0.748,0.516,-1.526,0.854,-6.165
0.400,-0.747,0.514,-2.319,0.000,-6.897
0.408,-0.743,0.513,-1.526,-0.183,-6.531
0.412,-0.737,0.511,-0.549,0.854,-5.310
0.407,-0.716,0.502,-0.488,2.869,-3.784
0.409,-0.712,0.504,-0.793,4.150,-3.052
0.407,-0.711,0.513,-1.404,4.700,-2.319
-0.995,-0.359,-1.631,10.376,-344.482,45.532
-1.201,-0.334,-1.842,-7.385,-393.494,52.856
-1.447,-0.236,-1.862,-28.625,-447.876,61.951
-1.749,-0.175,-1.775,-44.495,-503.357,68.054
-2.093,-0.172,-1.625,-58.167,-559.143,72.693
-2.366,-0.199,-1.383,-56.580,-611.694,79.041
-2.618,-0.209,-0.951,-29.236,-657.288,88.684
-2.722,-0.057,-0.733,10.986,-691.040,100.342
-2.749,0.224,-0.629,36.987,-717.285,107.971
-2.789,0.400,-0.638,29.114,-740.845,106.445
-2.889,0.457,-0.608,-2.991,-758.850,97.839
-2.921,0.499,-0.182,-20.996,-772.278,88.867
-2.816,0.638,0.261,-28.625,-770.874,84.839
-2.582,0.948,0.877,-60.486,-744.507,81.787
-2.403,1.247,1.345,-103.699,-692.200,70.984
-2.381,1.419,1.400,-151.123,-618.774,53.955
-2.545,1.281,1.312,-186.096,-550.415,29.419
-3.024,1.013,1.178,-191.589,-500.977,7.202
-3.611,0.953,1.022,-152.588,-473.511,-4.639
-4.000,1.020,1.379,-87.036,-470.947,-19.104
-4.000,0.758,1.704,-50.476,-472.046,-39.063
-4.000,0.454,2.069,-61.096,-472.229,-39.551
-4.000,0.456,2.655,-88.684,-472.534,-12.024
-4.000,0.775,3.132,-99.182,-453.064,13.489
-3.630,1.059,3.295,-88.501,-414.368,20.264
-3.257,1.186,3.168,-80.750,-363.892,13.000
-2.818,1.409,2.935,-85.327,-311.523,8.057
-2.328,1.501,2.759,-91.064,-272.522,11.047
-1.841,1.424,2.585,-91.553,-235.779,14.587
-1.437,1.380,2.395,-75.439,-197.510,15.686
-1.182,1.192,2.141,-42.542,-159.790,4.150
-1.148,0.742,1.764,-20.691,-124.268,-16.357
-1.213,0.348,1.392,-35.400,-96.130,-28.320
-1.216,0.158,1.144,-73.669,-81.787,-25.757
-1.222,0.187,1.138,-108.337,-82.458,-16.235
-1.157,0.282,1.209,-124.390,-90.088,-9.766
-1.092,0.389,1.358,-116.577,-98.145,-8.362
-1.062,0.300,1.489,-92.102,-99.548,-8.240
-1.005,0.203,1.528,-58.044,-89.600,-0.122
-0.935,0.319,1.431,-15.625,-68.481,19.104
-0.891,0.547,1.148,24.597,-39.551,34.851
-0.899,0.703,0.769,48.706,-13.977,39.307
-0.882,0.796,0.468,52.612,0.977,35.217
-0.869,0.823,0.284,44.006,10.986,26.123
-0.852,0.789,0.173,24.841,18.860,14.343
-0.852,0.700,0.093,0.549,23.743,3.235
-0.888,0.554,0.021,-21.301,26.184,-5.066
-0.897,0.415,-0.035,-36.926,26.367,-10.437
-0.897,0.275,-0.016,-38.330,22.400,-12.146
-0.905,0.177,0.047,-23.865,18.311,-12.085
-0.906,0.166,0.088,1.038,15.198,-9.827
-0.934,0.155,0.088,28.687,9.521,-7.751
-0.972,0.177,0.073,49.072,1.526,-4.761
-0.980,0.245,0.061,56.152,-4.333,-2.075
-0.999,0.269,0.081,47.546,-9.888,-1.465
-0.969,0.307,0.115,25.330,-13.428,-2.075
-0.945,0.276,0.144,3.296,-14.282,-4.395
-0.947,0.182,0.168,-11.292,-14.343,-7.568
-0.972,0.081,0.204,-17.700,-12.634,-8.972
-0.993,0.012,0.232,-15.015,-10.437,-6.409
-0.988,0.019,0.260,-3.967,-8.545,-0.488
-0.949,0.098,0.300,12.024,-7.324,6.287
-0.926,0.186,0.306,26.855,-5.554,10.010
-0.917,0.259,0.293,34.119,-3.235,10.071
-0.929,0.298,0.272,32.471,-1.038,9.033
-0.918,0.328,0.219,21.790,2.197,8.362
-0.924,0.347,0.152,6.592,4.822,8.606
-0.942,0.334,0.107,-6.348,4.211,9.949
-0.918,0.319,0.070,-16.968,1.343,12.024
-0.918,0.308,0.063,-22.156,-3.052,13.123
-0.925,0.260,0.104,-17.456,-9.949,12.634
-0.919,0.290,0.180,-2.502,-15.808,13.428
-0.891,0.370,0.250,15.076,-18.127,14.160
-0.875,0.404,0.314,25.024,-17.334,11.963
-0.867,0.430,0.358,21.301,-12.024,10.132
-0.859,0.438,0.343,6.592,-3.235,9.216
-0.886,0.397,0.276,-12.512,5.432,7.812
-0.929,0.369,0.196,-26.611,11.658,5.920
-0.944,0.330,0.151,-30.823,11.841,4.150
-0.959,0.297,0.155,-25.269,7.874,2.991
-0.961,0.281,0.174,-14.099,3.235,2.319
-0.938,0.303,0.209,-4.700,0.366,2.136
-0.905,0.317,0.243,-1.709,0.244,1.892
-0.888,0.311,0.253,-3.845,3.113,1.587
-0.884,0.307,0.237,-9.338,8.362,1.221
-0.886,0.318,0.210,-14.526,12.451,0.488
-0.910,0.289,0.176,-15.808,14.465,-1.587
-0.928,0.267,0.137,-15.381,14.648,-2.930
-0.948,0.253,0.110,-14.526,12.756,-3.540
-0.951,0.231,0.100,-12.512,9.338,-3.174
-0.961,0.212,0.111,-10.254,5.859,-1.465
-0.952,0.228,0.120,-7.019,2.380,1.282
-0.930,0.263,0.154,-1.526,-1.099,3.479
-0.912,0.284,0.179,4.150,-2.441,3.540
-0.889,0.303,0.203,5.859,-2.136,2.869
-0.882,0.323,0.221,4.272,0.366,1.831
-0.875,0.337,0.224,1.221,4.639,0.977
-0.878,0.336,0.228,-2.441,8.301,-0.793
-0.911,0.332,0.215,-6.348,11.292,-2.625
-0.942,0.316,0.167,-10.132,12.573,-3.052
-0.938,0.299,0.140,-15.015,10.803,-1.709
-0.920,0.294,0.137,-18.372,8.545,-0.366
-0.911,0.300,0.165,-16.846,6.714,0.488
-0.907,0.305,0.185,-11.536,6.714,0.305
-0.911,0.307,0.209,-5.615,6.653,-0.610
-0.915,0.307,0.240,-1.160,6.714,-1.221
-0.920,0.309,0.254,1.404,8.240,-1.404
-0.921,0.316,0.245,2.625,10.376,-1.099
-0.917,0.328,0.230,2.563,11.780,-0.305
-0.920,0.318,0.198,1.282,13.184,-0.610
-0.912,0.320,0.177,-1.587,13.733,-1.038
-0.912,0.314,0.166,-4.883,14.099,-1.892
-0.917,0.308,0.159,-7.629,14.648,-2.686
-0.914,0.303,0.172,-8.728,14.221,-3.052
-0.907,0.296,0.191,-8.362,13.550,-3.113
-0.907,0.297,0.192,-7.629,13.428,-2.869
-0.906,0.295,0.180,-5.981,12.146,-2.197
-0.912,0.290,0.173,-3.479,10.864,-2.014
-0.912,0.296,0.174,-1.343,9.766,-2.197
-0.855,-0.369,-1.504,34.729,-411.255,-5.432
-1.046,-0.401,-1.289,13.367,-465.027,4.272
-1.208,-0.430,-1.001,-1.770,-507.874,16.174
-1.385,-0.425,-0.608,-9.033,-539.795,31.494
-1.448,-0.343,-0.348,-12.146,-557.861,50.354
-1.421,-0.197,-0.200,-20.630,-564.575,68.542
-1.405,-0.092,-0.039,-30.640,-564.087,82.336
-1.398,0.062,0.137,-30.518,-555.359,89.722
-1.417,0.321,0.285,-19.043,-544.312,87.341
-1.456,0.436,0.338,-4.944,-539.368,72.510
-1.506,0.390,0.465,0.061,-541.931,52.246
-1.486,0.318,0.791,-0.122,-538.818,35.645
-1.440,0.274,1.016,-3.601,-520.203,25.574
-1.440,0.452,1.271,-20.081,-488.403,21.912
-1.473,0.697,1.576,-52.246,-449.402,15.869
-1.635,0.706,1.654,-100.830,-406.433,5.371
-1.767,0.527,1.505,-150.635,-370.239,1.770
-1.922,0.249,1.417,-178.955,-349.548,10.986
-1.967,0.136,1.310,-170.776,-338.806,31.799
-1.971,0.234,1.253,-113.647,-338.318,49.866
-1.960,0.249,1.199,-22.644,-346.008,51.819
-1.978,0.200,1.203,56.152,-355.286,41.870
-1.990,0.198,1.223,89.905,-356.567,30.029
-2.077,0.202,1.243,76.660,-342.468,23.621
-2.208,0.261,1.260,27.588,-317.139,23.682
-2.334,0.410,1.283,-30.945,-289.246,28.198
-2.370,0.642,1.204,-77.759,-267.822,30.334
-2.420,0.821,1.166,-97.107,-256.531,22.156
-2.410,0.785,1.218,-96.985,-253.784,4.761
-2.385,0.587,1.371,-91.736,-252.258,-6.653
-2.297,0.446,1.438,-84.656,-245.422,-6.775
-2.183,0.349,1.523,-71.716,-238.159,2.441
-2.022,0.380,1.613,-54.810,-229.126,18.127
-1.807,0.493,1.670,-35.645,-213.684,33.875
-1.567,0.638,1.693,-16.663,-191.589,44.067
-1.318,0.772,1.641,2.686,-166.077,46.387
-1.105,0.847,1.539,20.508,-138.062,40.649
-1.004,0.816,1.367,28.564,-106.079,29.175
-0.998,0.717,1.156,19.043,-73.364,16.968
-1.002,0.647,0.923,-4.150,-46.204,8.423
-1.012,0.601,0.668,-32.410,-26.367,0.793
-1.116,0.423,0.479,-58.472,-16.357,-6.409
-1.184,0.282,0.320,-79.224,-16.907,-7.141
-1.186,0.316,0.256,-85.083,-25.757,-0.671
-1.144,0.375,0.314,-70.129,-41.809,3.357
-1.126,0.410,0.450,-39.001,-60.120,0.732
-1.078,0.427,0.567,-5.493,-71.533,-5.798
-1.049,0.347,0.691,16.785,-74.097,-14.954
-1.064,0.200,0.763,19.409,-68.542,-22.949
-1.067,0.111,0.741,5.554,-57.556,-24.841
-1.054,0.089,0.678,-16.602,-45.654,-23.071
-1.050,0.070,0.632,-37.476,-35.339,-21.912
-1.049,0.035,0.585,-49.316,-26.917,-22.705
-1.043,-0.038,0.564,-52.490,-22.339,-22.644
-1.028,-0.116,0.578,-47.363,-20.813,-18.921
-1.037,-0.180,0.582,-38.025,-18.799,-11.719
-1.028,-0.160,0.538,-25.513,-14.038,-1.892
-0.997,-0.066,0.463,-12.268,-8.789,9.705
-0.960,0.046,0.370,-2.319,-4.333,17.456
-0.944,0.144,0.290,4.456,-1.953,20.081
-0.924,0.260,0.222,10.071,-0.427,20.264
-0.909,0.372,0.179,12.085,0.122,17.639
-0.907,0.431,0.153,6.470,-1.038,11.841
-0.909,0.445,0.140,-6.042,-1.648,6.165
-0.881,0.409,0.156,-25.696,-0.061,2.014
-0.868,0.378,0.162,-45.776,2.563,0.244
-0.876,0.324,0.185,-58.044,5.737,-1.221
-0.915,0.263,0.183,-56.274,8.911,-2.319
-0.957,0.240,0.188,-42.053,8.301,-3.052
-0.968,0.233,0.207,-19.165,3.967,-3.052
-0.967,0.242,0.236,1.526,-0.427,-3.479
-0.948,0.281,0.265,12.817,-1.953,-4.333
-0.929,0.310,0.304,13.855,-1.953,-6.165
-0.932,0.308,0.336,5.920,0.916,-8.789
-0.959,0.268,0.328,-8.484,6.592,-10.986
-0.962,0.219,0.306,-24.353,11.719,-10.620
-0.982,0.167,0.266,-35.156,15.442,-9.399
-0.990,0.149,0.223,-36.987,16.357,-7.996
-0.990,0.130,0.205,-30.640,12.878,-7.690
-0.988,0.107,0.215,-18.494,7.751,-7.996
-0.964,0.115,0.243,-5.371,3.540,-7.019
-0.947,0.140,0.280,3.479,1.587,-4.883
-0.928,0.194,0.302,5.493,2.808,-3.052
-0.902,0.239,0.321,2.930,5.859,-1.282
-0.887,0.262,0.326,-0.244,10.986,-0.427
-0.875,0.280,0.318,-1.831,17.395,-0.671
-0.875,0.262,0.291,-1.953,23.315,-1.831
-0.905,0.226,0.247,-1.221,28.564,-2.747
-0.949,0.190,0.186,-1.770,32.166,-2.991
-0.983,0.177,0.126,-3.662,32.104,-1.709
-1.004,0.180,0.069,-7.996,29.297,0.854
-0.993,0.195,0.069,-12.939,23.743,3.540
-0.966,0.228,0.081,-14.099,17.822,5.432
-0.938,0.244,0.112,-9.644,12.329,5.371
-0.931,0.244,0.142,-3.235,8.240,3.479
-0.924,0.237,0.171,2.197,5.737,1.404
-0.920,0.235,0.205,5.310,4.639,0.000
-0.913,0.245,0.242,4.211,5.554,-0.671
-0.905,0.245,0.264,-0.427,8.179,-1.404
-0.901,0.225,0.275,-5.188,12.207,-1.160
-0.923,0.215,0.264,-10.437,16.602,-0.549
-0.939,0.206,0.222,-13.123,18.860,0.549
-0.949,0.206,0.170,-11.353,17.944,1.526
-0.942,0.209,0.155,-6.592,13.306,1.770
-0.937,0.215,0.170,-1.892,7.751,0.854
-0.926,0.215,0.204,2.563,3.479,0.000
-0.925,0.203,0.239,4.211,1.648,-0.549
-0.928,0.206,0.267,2.563,2.808,0.366
-0.924,0.239,0.269,-0.671,5.188,2.197
-0.900,0.259,0.274,-3.845,6.775,3.296
-0.903,0.273,0.267,-5.676,9.705,3.357
-0.901,0.289,0.269,-5.310,11.963,3.235
-0.901,0.300,0.261,-2.686,13.306,2.441
-0.900,0.310,0.251,0.610,13.367,0.488
-0.910,0.310,0.249,4.211,11.414,-2.014
-0.911,0.292,0.257,5.737,8.972,-3.967
-0.914,0.254,0.263,3.418,7.568,-4.822
-0.929,0.223,0.255,-1.648,8.179,-4.028
-0.930,0.221,0.245,-8.057,10.254,-2.136
-1.221,0.689,1.293,-27.283,-467.468,54.199
-1.177,0.545,1.490,-17.883,-435.425,41.016
-1.190,0.285,1.315,-48.401,-387.878,34.180
-1.246,0.233,0.949,-85.449,-341.675,41.992
-1.375,0.376,0.582,-91.858,-317.566,55.542
-1.512,0.529,0.346,-71.045,-318.115,57.678
-1.750,0.708,0.303,-39.856,-340.149,47.607
-2.024,0.749,0.501,-15.625,-372.742,27.893
-2.242,0.751,0.750,-14.648,-401.611,11.353
-2.201,1.012,1.333,-38.574,-418.274,3.906
-2.024,1.193,2.155,-66.101,-412.842,-7.446
-2.020,0.947,2.469,-89.111,-369.934,-27.283
-2.099,0.643,2.216,-105.225,-301.331,-41.199
-2.182,0.266,1.802,-103.027,-250.000,-37.659
-2.284,0.122,1.527,-89.172,-224.487,-16.479
-2.281,0.263,1.214,-63.538,-213.562,7.141
-2.246,0.479,1.011,-26.062,-217.407,20.325
-2.194,0.576,1.008,10.437,-234.619,20.203
-2.113,0.651,1.169,24.780,-250.854,14.526
-2.035,0.755,1.321,13.306,-255.005,9.033
-1.911,0.929,1.438,-12.695,-247.070,6.714
-1.775,0.913,1.489,-47.424,-230.164,4.578
-1.683,0.679,1.587,-82.397,-206.970,4.639
-1.542,0.584,1.613,-98.389,-183.289,11.292
-1.428,0.593,1.634,-77.698,-164.978,16.541
-1.336,0.549,1.657,-34.851,-149.780,14.954
-1.274,0.419,1.603,0.061,-136.047,11.108
-1.205,0.363,1.480,13.306,-120.728,8.606
-1.126,0.343,1.348,12.085,-106.445,8.911
-1.031,0.297,1.205,2.014,-92.346,11.658
-1.002,0.360,1.072,-17.944,-76.538,12.939
-0.985,0.469,0.922,-41.992,-63.721,10.254
-0.991,0.524,0.828,-62.073,-56.763,3.052
-0.990,0.422,0.803,-78.064,-54.504,-6.042
-0.976,0.341,0.823,-86.060,-50.476,-10.193
-0.917,0.400,0.792,-72.998,-45.776,-10.803
-0.903,0.459,0.779,-42.236,-41.992,-15.076
-0.911,0.443,0.742,-7.263,-36.011,-21.362
-0.929,0.364,0.679,19.592,-28.809,-25.208
-0.937,0.346,0.609,31.189,-21.362,-22.278
-0.902,0.396,0.517,29.236,-12.939,-14.648
-0.872,0.429,0.456,19.714,-4.211,-7.202
-0.846,0.470,0.385,5.066,5.615,-3.296
-0.833,0.516,0.344,-10.620,14.099,-2.014
-0.796,0.485,0.243,-25.574,22.156,-3.540
-0.826,0.407,0.202,-41.870,27.649,-6.897
-0.862,0.336,0.181,-52.612,29.114,-8.789
-0.886,0.297,0.177,-51.086,26.489,-7.935
-0.900,0.281,0.178,-38.879,21.667,-6.836
-0.923,0.281,0.166,-20.996,15.137,-7.263
-0.939,0.285,0.164,-3.479,8.240,-8.179
-0.960,0.278,0.166,8.606,1.892,-8.484
-0.955,0.287,0.200,14.893,-3.235,-7.996
-0.932,0.290,0.215,13.367,-6.287,-7.507
-0.920,0.260,0.222,2.991,-6.714,-7.507
-0.916,0.235,0.217,-11.963,-4.089,-6.653
-0.926,0.232,0.211,-24.109,-1.648,-4.883
-0.932,0.238,0.209,-27.100,-1.404,-3.906
-0.934,0.245,0.225,-21.423,-3.723,-4.456
-0.945,0.213,0.254,-12.024,-6.531,-6.042
-0.956,0.206,0.281,-5.310,-8.728,-6.348
-0.933,0.247,0.297,-2.808,-9.216,-3.662
-0.892,0.295,0.314,-1.709,-7.568,-0.183
-0.872,0.319,0.313,-3.967,-3.723,2.136
-0.854,0.325,0.298,-10.864,1.343,3.235
-0.862,0.323,0.267,-20.203,7.751,3.723
-0.880,0.328,0.221,-27.771,12.085,3.540
-0.902,0.335,0.185,-29.968,12.146,3.906
-0.900,0.335,0.175,-26.245,10.193,4.333
-0.910,0.339,0.184,-17.517,7.141,4.639
-0.914,0.363,0.199,-7.141,2.625,4.944
-0.907,0.384,0.239,2.075,-1.709,4.639
-0.891,0.410,0.268,7.446,-3.540,3.845
-0.874,0.424,0.299,7.324,-3.174,2.747
-0.849,0.430,0.324,2.319,-0.854,1.953
-0.841,0.424,0.326,-6.042,4.272,0.916
-0.854,0.400,0.312,-15.747,10.376,-0.488
-0.885,0.357,0.284,-24.536,15.320,-1.465
-0.915,0.328,0.233,-29.846,17.090,-1.404
-0.930,0.322,0.209,-27.039,15.381,-0.122
-0.932,0.335,0.205,-16.785,10.498,0.488
-0.926,0.341,0.222,-4.639,4.272,-0.366
-0.915,0.345,0.250,5.432,-0.549,-1.526
-0.893,0.352,0.275,10.742,-2.625,-2.197
-0.877,0.364,0.291,9.216,-2.258,-2.563
-0.867,0.360,0.295,4.028,0.549,-2.625
-0.862,0.349,0.294,-2.441,5.066,-2.808
-0.863,0.343,0.274,-8.057,9.888,-2.747
-0.879,0.333,0.248,-11.475,12.878,-2.563
-0.894,0.337,0.217,-12.390,13.794,-2.319
-0.905,0.320,0.207,-9.338,12.939,-2.502
-0.910,0.302,0.224,-2.808,10.193,-2.380
-0.901,0.319,0.247,4.150,8.240,-1.587
-0.884,0.357,0.257,9.949,7.568,-1.099
-0.867,0.380,0.292,13.977,7.141,-1.404
-0.854,0.388,0.304,15.198,9.949,-2.625
-0.855,0.375,0.320,12.817,13.367,-3.906
-0.859,0.362,0.309,8.911,17.395,-4.395
-0.885,0.351,0.276,3.723,21.851,-4.639
-0.898,0.354,0.248,-1.953,24.292,-3.967
-0.902,0.361,0.235,-7.324,24.231,-3.296
-0.899,0.370,0.233,-11.353,22.949,-3.052
-0.892,0.385,0.233,-11.414,19.836,-3.479
-0.878,0.388,0.260,-5.798,15.381,-4.089
-0.861,0.390,0.290,2.441,12.146,-5.188
-0.855,0.377,0.317,9.216,10.925,-6.775
-0.848,0.370,0.330,11.292,11.475,-7.874
-0.846,0.364,0.341,9.155,14.343,-8.789
-0.848,0.357,0.357,4.761,19.104,-9.338
-0.842,0.347,0.347,-0.366,24.658,-9.033
-0.857,0.324,0.353,-5.920,28.931,-8.667
-0.876,0.318,0.331,-11.780,32.349,-7.324
-0.879,0.335,0.316,-16.846,33.936,-5.188
-0.872,0.340,0.303,-18.799,33.508,-3.601
-0.877,0.331,0.287,-17.944,32.043,-3.418
-0.884,0.330,0.269,-13.123,29.297,-3.723
-0.882,0.341,0.264,-3.784,25.513,-4.211
-0.875,0.364,0.291,7.080,21.179,-4.700
-0.850,0.379,0.329,15.137,19.226,-5.554
-1.863,0.779,0.869,-38.330,-557.251,117.432
-1.755,1.126,1.385,-47.058,-559.570,105.652
-1.617,1.188,1.895,-49.316,-544.495,82.336
-1.481,1.039,2.217,-62.622,-500.427,57.068
-1.461,0.704,2.206,-82.214,-434.387,40.283
-1.515,0.504,1.890,-96.191,-359.436,41.687
-1.663,0.538,1.477,-101.257,-303.223,57.129
-1.806,0.599,1.139,-95.703,-279.663,70.984
-1.979,0.661,0.820,-82.275,-281.372,75.012
-2.181,0.683,0.703,-60.547,-303.467,69.885
-2.374,0.668,0.774,-31.189,-339.783,58.899
-2.544,0.626,0.982,-3.113,-375.305,46.387
-2.614,0.717,1.351,12.085,-398.682,38.025
-2.494,0.811,1.847,9.033,-401.367,33.447
-2.442,0.806,2.203,-16.724,-376.099,30.151
-2.393,0.756,2.358,-60.730,-327.698,27.832
-2.344,0.708,2.363,-101.990,-275.452,28.748
-2.266,0.630,2.299,-115.540,-236.328,33.691
-2.143,0.542,2.179,-91.675,-215.637,39.856
-1.972,0.604,2.109,-40.405,-209.656,47.363
-1.716,0.783,2.025,22.156,-207.214,53.650
-1.414,0.971,1.974,76.172,-200.928,53.589
-1.178,1.096,1.877,103.943,-185.547,44.128
-0.957,1.158,1.759,106.079,-160.156,26.733
-0.849,1.007,1.615,87.280,-128.723,3.418
-0.858,0.724,1.411,44.312,-94.482,-17.273
-0.888,0.454,1.211,-12.390,-62.134,-24.902
-0.896,0.274,1.029,-64.758,-36.255,-20.752
-0.849,0.184,0.833,-95.764,-20.386,-12.695
-0.844,0.194,0.683,-100.403,-15.503,-5.554
-0.883,0.214,0.564,-83.984,-20.569,-5.432
-0.939,0.232,0.524,-52.307,-37.048,-10.925
-0.977,0.253,0.623,-12.512,-63.171,-17.639
-0.983,0.253,0.769,26.062,-86.182,-25.024
-0.960,0.291,0.887,50.598,-96.985,-31.250
-0.935,0.342,0.955,53.955,-96.252,-35.095
-0.920,0.417,0.954,35.950,-86.670,-39.246
-0.929,0.334,0.945,6.165,-73.181,-43.396
-0.934,0.166,0.956,-23.376,-57.617,-43.091
-0.927,0.070,0.958,-43.335,-41.321,-35.278
-0.899,0.083,0.915,-48.523,-26.794,-24.170
-0.876,0.112,0.853,-41.077,-14.832,-15.076
-0.860,0.118,0.792,-29.358,-5.615,-9.827
-0.855,0.153,0.708,-18.616,3.845,-5.005
-0.848,0.227,0.581,-12.390,13.000,-0.183
-0.844,0.312,0.459,-10.864,19.836,3.967
-0.846,0.404,0.313,-13.855,24.292,4.761
-0.850,0.469,0.205,-16.724,24.414,2.197
-0.829,0.472,0.150,-17.578,20.996,-2.319
-0.840,0.431,0.134,-20.874,16.235,-8.240
-0.854,0.379,0.138,-24.475,11.230,-13.306
-0.865,0.319,0.161,-26.855,6.409,-15.137
-0.873,0.266,0.200,-27.222,2.869,-14.038
-0.874,0.227,0.256,-24.597,1.770,-10.254
-0.880,0.224,0.290,-17.944,1.648,-5.371
-0.877,0.269,0.313,-7.507,1.648,-0.610
-0.865,0.323,0.319,3.967,1.526,2.441
-0.871,0.366,0.318,16.357,0.793,2.380
-0.873,0.388,0.308,24.414,-1.099,-0.305
-0.874,0.376,0.316,25.024,-2.869,-3.113
-0.880,0.367,0.313,15.930,-3.174,-5.249
-0.880,0.347,0.327,2.258,-2.136,-7.080
-0.889,0.307,0.360,-10.132,-0.671,-7.935
-0.902,0.276,0.368,-19.714,1.892,-7.324
-0.898,0.256,0.385,-24.658,3.418,-6.042
-0.903,0.230,0.384,-23.621,4.517,-4.944
-0.912,0.225,0.381,-17.822,4.700,-4.150
-0.898,0.249,0.385,-8.911,3.601,-2.991
-0.885,0.255,0.395,0.122,3.296,-2.136
-0.865,0.268,0.404,4.822,4.089,-1.038
-0.859,0.282,0.381,2.197,7.324,-0.061
-0.860,0.299,0.354,-3.601,10.925,1.282
-0.865,0.314,0.328,-8.972,13.916,2.319
-0.870,0.337,0.305,-10.193,14.343,2.136
-0.879,0.360,0.294,-6.531,12.146,1.221
-0.883,0.363,0.289,-0.061,7.996,0.244
-0.883,0.352,0.301,4.517,3.967,-1.160
-0.879,0.339,0.319,6.592,1.648,-1.343
-0.868,0.345,0.338,5.737,1.160,-0.061
-0.853,0.369,0.344,3.235,2.808,1.892
-0.833,0.380,0.346,1.282,5.249,2.808
-0.835,0.383,0.340,0.427,7.996,2.258
-0.840,0.379,0.318,-1.221,10.315,0.916
-0.849,0.365,0.303,-3.052,11.414,-0.244
-0.855,0.337,0.301,-5.615,12.024,-1.282
-0.868,0.314,0.304,-8.484,11.963,-1.465
-0.875,0.306,0.305,-10.803,12.024,-0.488
-0.871,0.313,0.318,-12.146,11.108,0.610
-0.869,0.316,0.323,-10.315,9.827,0.671
-0.862,0.321,0.334,-3.967,7.996,0.977
-0.855,0.330,0.344,3.601,5.371,1.038
-0.846,0.342,0.372,10.193,3.357,0.488
-0.830,0.351,0.400,13.733,3.601,-0.854
-0.836,0.344,0.411,13.733,6.958,-1.648
-0.840,0.333,0.416,8.911,11.536,-2.136
-0.844,0.319,0.410,3.296,16.785,-2.014
-0.861,0.313,0.385,-1.770,21.851,-1.648
-0.866,0.316,0.358,-4.944,24.719,-0.854
-0.869,0.325,0.328,-7.019,25.818,-0.366
-0.869,0.326,0.291,-8.484,25.269,-0.916
-0.882,0.322,0.285,-9.277,22.644,-1.892
-0.879,0.319,0.287,-7.385,18.433,-2.014
-0.869,0.307,0.298,-5.066,14.282,-2.319
-0.871,0.284,0.319,-3.601,11.169,-2.808
-0.867,0.269,0.336,-3.723,9.155,-2.563
-0.862,0.269,0.347,-5.676,8.545,-1.221
-0.851,0.269,0.362,-8.972,8.179,0.305
-0.848,0.279,0.369,-11.353,8.484,1.892
-0.842,0.286,0.378,-12.878,8.789,3.052
-0.836,0.298,0.383,-12.024,8.423,4.150
-0.832,0.324,0.382,-8.301,7.141,4.456
-0.826,0.344,0.380,-2.197,4.883,4.150
-0.820,0.349,0.389,4.028,2.319,2.930
-0.820,0.359,0.404,8.301,0.916,2.319
-0.821,0.364,0.415,8.728,0.793,1.648
-0.824,0.364,0.425,6.409,3.113,1.404
-0.835,0.364,0.425,1.404,6.836,1.526
-0.848,0.363,0.405,-4.578,10.986,1.587
-0.851,0.367,0.383,-9.521,14.099,1.587
-1.663,0.903,0.582,-110.291,-426.086,99.609
-1.770,1.043,0.802,-84.778,-451.172,82.581
-1.846,1.075,1.308,-48.889,-472.107,59.448
-1.838,0.975,1.739,-18.616,-468.994,37.598
-1.861,0.941,1.941,-16.479,-436.951,23.010
-1.892,1.037,2.088,-42.358,-389.221,13.062
-1.922,1.042,2.209,-81.360,-337.769,5.798
-1.938,0.971,2.141,-112.244,-289.673,1.831
-1.975,0.836,1.891,-118.103,-255.188,0.427
-2.042,0.660,1.623,-101.746,-237.061,1.221
-2.054,0.660,1.354,-70.679,-231.262,6.714
-2.037,0.737,1.185,-33.325,-234.741,11.169
-1.986,0.817,1.131,-1.465,-242.676,10.986
-1.973,0.878,1.108,11.719,-249.451,4.456
-1.947,0.836,1.165,5.615,-254.517,-4.639
-1.906,0.663,1.322,-15.015,-253.601,-9.766
-1.787,0.563,1.468,-45.105,-241.638,-5.310
-1.615,0.501,1.582,-71.411,-222.656,5.737
-1.444,0.425,1.682,-77.515,-199.951,17.822
-1.298,0.423,1.673,-63.232,-172.363,28.259
-1.209,0.511,1.490,-38.147,-143.555,35.522
-1.148,0.581,1.301,-12.573,-123.230,36.987
-1.115,0.642,1.132,7.385,-109.314,33.997
-1.084,0.719,0.937,24.170,-97.412,27.283
-1.036,0.764,0.759,34.180,-90.027,14.038
-1.070,0.621,0.718,26.306,-88.318,-4.639
-1.069,0.489,0.678,-1.099,-84.229,-17.517
-1.040,0.426,0.655,-35.217,-78.247,-21.606
-1.031,0.333,0.708,-58.594,-73.120,-20.630
-1.011,0.309,0.768,-67.627,-69.336,-16.113
-0.977,0.332,0.825,-61.646,-67.627,-11.475
-0.952,0.297,0.905,-44.312,-66.589,-14.160
-0.939,0.248,0.970,-23.193,-63.416,-21.667
-0.955,0.252,0.986,-6.226,-56.580,-29.968
-0.968,0.270,0.975,3.784,-47.241,-37.903
-1.023,0.135,0.915,0.793,-35.706,-44.250
-1.090,0.050,0.811,-17.578,-22.522,-41.504
-1.086,0.097,0.725,-41.687,-11.475,-28.687
-1.031,0.165,0.680,-57.861,-3.845,-13.794
-0.979,0.237,0.645,-60.608,0.488,-4.517
-0.939,0.286,0.595,-51.147,1.770,-0.549
-0.916,0.302,0.523,-34.424,1.892,0.977
-0.895,0.312,0.473,-17.212,1.526,2.258
-0.869,0.334,0.415,-2.380,1.709,4.944
-0.864,0.374,0.381,7.141,3.418,7.629
-0.832,0.422,0.309,7.507,5.676,9.949
-0.812,0.464,0.260,1.465,8.545,11.719
-0.817,0.508,0.243,-5.981,11.169,11.658
-0.813,0.514,0.218,-11.658,12.939,10.864
-0.797,0.464,0.176,-12.573,14.709,9.705
-0.832,0.440,0.139,-10.132,14.160,7.080
-0.856,0.448,0.091,-3.418,10.681,3.235
-0.871,0.426,0.096,5.737,4.089,0.000
-0.882,0.400,0.140,12.695,-2.075,-2.869
-0.880,0.391,0.189,14.526,-4.517,-4.272
-0.884,0.378,0.234,11.108,-4.211,-5.066
-0.880,0.362,0.247,3.479,-2.014,-4.944
-0.885,0.364,0.255,-3.540,1.221,-3.967
-0.896,0.381,0.230,-6.348,3.113,-3.784
-0.911,0.374,0.199,-4.700,2.686,-5.432
-0.919,0.341,0.216,-0.488,-0.977,-8.484
-0.922,0.306,0.256,4.272,-4.639,-10.986
-0.921,0.274,0.317,6.653,-7.019,-12.329
-0.915,0.273,0.343,4.456,-7.019,-11.902
-0.892,0.278,0.392,0.000,-5.798,-9.338
-0.865,0.279,0.406,-5.371,-1.770,-6.836
-0.870,0.262,0.396,-11.353,4.639,-5.127
-0.879,0.249,0.370,-16.541,11.963,-3.662
-0.899,0.223,0.331,-19.348,17.273,-2.014
-0.919,0.224,0.294,-19.043,19.226,0.916
-0.916,0.253,0.267,-12.207,17.700,4.456
-0.911,0.307,0.244,-1.770,13.367,6.592
-0.892,0.359,0.264,7.690,7.996,7.080
-0.867,0.406,0.271,12.085,4.456,6.714
-0.844,0.429,0.283,10.803,3.601,5.066
-0.837,0.417,0.287,5.737,5.615,2.686
-0.853,0.404,0.273,-0.916,9.766,1.404
-0.878,0.391,0.280,-7.874,14.587,0.977
-0.866,0.392,0.248,-12.390,17.883,0.916
-0.883,0.385,0.238,-12.512,17.883,0.793
-0.876,0.372,0.245,-10.864,16.174,1.282
-0.871,0.391,0.243,-7.935,14.038,2.014
-0.856,0.415,0.221,-4.272,11.719,2.136
-0.849,0.409,0.254,-1.221,9.094,0.183
-0.851,0.387,0.261,1.343,8.362,-1.709
-0.856,0.369,0.269,2.136,8.911,-2.686
-0.859,0.358,0.285,1.099,9.338,-3.357
-0.862,0.360,0.307,-0.732,10.071,-3.723
-0.861,0.360,0.322,-2.441,11.353,-3.601
-0.863,0.361,0.336,-4.883,12.817,-3.235
-0.853,0.373,0.328,-7.446,14.404,-2.869
-0.851,0.367,0.345,-7.935,15.381,-3.601
-0.851,0.349,0.357,-6.409,16.541,-4.639
-0.862,0.314,0.343,-4.089,17.151,-5.310
-0.879,0.295,0.324,-0.793,18.188,-4.822
-0.888,0.301,0.297,0.183,19.104,-3.357
-0.887,0.317,0.293,-1.282,18.860,-1.221
-0.878,0.338,0.318,-3.113,18.372,0.854
-0.863,0.350,0.350,-4.395,18.250,2.136
-0.852,0.376,0.373,-4.700,18.860,2.808
-0.842,0.396,0.398,-2.991,19.470,3.113
-0.835,0.385,0.421,-1.099,21.179,2.258
-0.844,0.373,0.412,0.366,24.597,1.709
-0.850,0.375,0.391,0.427,28.015,2.197
-0.853,0.389,0.358,-2.563,29.968,2.075
-0.852,0.402,0.340,-6.042,30.640,1.282
-0.842,0.401,0.339,-7.080,30.090,0.427
-0.834,0.396,0.352,-6.653,28.809,-0.916
-0.834,0.395,0.358,-5.676,28.137,-1.892
-0.833,0.397,0.359,-3.662,27.771,-2.441
-0.825,0.398,0.354,-1.709,26.978,-2.808
-0.826,0.399,0.364,-0.244,26.611,-3.479
-0.825,0.391,0.366,1.465,26.611,-4.089
-0.815,0.368,0.394,3.723,25.818,-4.700
-0.820,0.354,0.399,6.531,26.917,-5.188
-0.839,0.351,0.390,8.545,28.992,-4.517
-0.825,0.351,0.410,7.751,29.846,-3.357
-0.825,0.370,0.382,4.333,30.762,-2.380
-0.826,0.393,0.351,0.610,30.945,-2.441
-1.487,0.485,0.832,-20.996,-555.725,166.382
-1.568,0.654,0.775,-66.406,-528.320,170.593
-1.706,0.786,0.629,-120.544,-506.653,169.556
-1.775,0.899,0.582,-160.461,-496.826,167.847
-1.752,1.029,0.627,-161.072,-496.887,159.851
-1.832,1.017,0.758,-119.690,-498.169,133.484
-1.967,0.862,1.030,-51.697,-488.770,96.863
-1.997,0.716,1.242,5.554,-463.989,69.641
-2.039,0.590,1.359,30.273,-425.232,53.040
-2.159,0.418,1.401,23.132,-377.808,41.992
-2.274,0.318,1.259,0.854,-330.750,38.208
-2.469,0.198,1.014,-17.273,-294.678,37.048
-2.775,-0.058,0.780,-24.231,-275.635,35.400
-3.130,-0.170,0.635,-30.334,-271.118,39.124
-3.312,-0.160,0.585,-33.875,-279.724,50.232
-3.333,0.002,0.705,-32.166,-299.805,64.392
-3.191,0.283,0.928,-26.367,-321.045,76.294
-2.847,0.650,1.228,-16.846,-333.069,81.055
-2.387,0.915,1.521,-6.348,-331.299,77.209
-1.994,1.069,1.860,-1.648,-311.646,64.087
-1.616,1.031,2.009,1.709,-268.677,43.518
-1.350,0.826,1.993,5.127,-212.463,22.705
-1.272,0.510,1.781,5.737,-152.039,7.202
-1.333,0.230,1.459,-1.953,-99.548,-1.892
-1.375,0.075,1.138,-12.878,-64.758,-0.610
-1.362,0.062,0.760,-16.052,-46.265,7.141
-1.305,0.196,0.453,-12.329,-43.396,14.099
-1.266,0.337,0.278,-2.380,-55.298,15.015
-1.230,0.442,0.268,8.789,-74.219,11.353
-1.190,0.518,0.382,12.573,-89.111,6.165
-1.168,0.532,0.520,11.475,-93.445,-0.183
-1.149,0.559,0.632,8.240,-90.881,-6.714
-1.141,0.579,0.703,6.348,-84.229,-16.113
-1.107,0.641,0.726,7.690,-75.684,-29.846
-1.098,0.560,0.750,9.033,-67.688,-48.279
-1.157,0.297,0.687,-0.305,-55.664,-66.101
-1.232,0.036,0.598,-25.940,-40.161,-70.007
-1.244,-0.092,0.509,-55.969,-26.184,-58.105
-1.225,-0.071,0.444,-72.205,-18.005,-40.527
-1.199,0.005,0.344,-68.115,-17.212,-27.222
-1.169,0.090,0.291,-51.147,-24.231,-22.095
-1.119,0.135,0.299,-32.043,-35.645,-23.499
-1.054,0.204,0.334,-18.127,-45.227,-25.940
-0.988,0.293,0.377,-8.789,-48.279,-30.396
-0.910,0.337,0.388,-5.859,-45.166,-37.598
-0.926,0.260,0.444,-10.254,-37.781,-43.884
-0.933,0.160,0.415,-20.386,-24.597,-44.617
-0.955,0.080,0.390,-33.752,-10.132,-38.147
-0.957,0.082,0.366,-41.687,2.686,-26.367
-0.948,0.149,0.301,-39.368,14.526,-14.343
-0.947,0.270,0.157,-28.564,22.400,-6.531
-0.944,0.390,-0.008,-11.658,24.475,-5.676
-0.962,0.418,-0.089,8.728,18.311,-10.437
-0.977,0.399,-0.102,26.184,9.338,-15.747
-0.980,0.405,-0.081,32.837,1.892,-17.639
-0.958,0.432,-0.039,26.367,-2.808,-18.677
-0.932,0.418,0.034,11.780,-4.089,-20.569
-0.932,0.333,0.091,-4.395,-1.953,-23.193
-0.945,0.252,0.126,-17.212,2.197,-22.766
-0.975,0.198,0.138,-21.729,7.324,-20.264
-1.000,0.166,0.119,-16.235,10.986,-15.991
-1.000,0.159,0.107,-7.263,12.512,-11.475
-1.000,0.150,0.121,-0.305,12.451,-8.667
