aX,aY,aZ,gX,gY,gZ
-0.809,0.432,2.711,-23.071,-14.832,18.860
-0.795,0.408,2.801,8.301,-15.808,29.541
-0.751,0.437,2.936,26.245,-29.053,39.673
-0.677,0.362,2.920,48.706,-41.443,44.006
-0.589,0.280,2.990,64.148,-64.575,46.692
-0.699,0.195,3.109,69.214,-93.140,44.739
-0.548,0.179,3.053,75.378,-104.614,46.082
-0.504,0.160,3.222,79.956,-119.019,49.622
-0.349,0.102,3.240,80.566,-122.437,49.805
-0.197,0.068,3.227,82.642,-112.183,48.706
-0.054,0.081,3.225,79.834,-96.252,46.509
0.227,0.126,3.206,68.420,-88.806,43.335
0.424,0.181,3.245,48.218,-119.568,39.795
0.632,0.226,3.159,34.729,-131.836,38.940
0.838,0.282,3.140,25.208,-138.000,41.016
1.164,0.310,2.949,21.667,-132.812,49.622
1.439,0.335,2.690,23.560,-122.192,62.378
1.686,0.375,2.437,26.672,-112.610,74.951
1.830,0.432,2.188,30.090,-100.220,84.106
1.941,0.499,2.005,34.790,-84.229,89.417
2.158,0.448,1.800,40.527,-61.829,92.285
2.092,0.509,1.429,42.053,-43.030,90.332
2.094,0.498,1.238,50.659,-32.227,82.703
2.133,0.565,0.826,55.359,-20.752,72.327
1.998,0.561,0.494,49.988,-20.691,49.316
1.905,0.637,0.217,33.386,-30.518,24.841
1.792,0.737,-0.013,13.062,-41.504,-0.061
1.630,0.843,-0.103,-3.906,-56.213,-20.325
1.554,1.011,-0.247,-7.935,-69.702,-25.940
1.403,1.101,-0.353,4.517,-82.703,-20.081
1.226,1.052,-0.356,28.137,-88.562,-6.042
1.102,0.830,-0.512,53.711,-78.857,18.127
1.091,0.556,-0.622,65.674,-67.505,45.837
1.077,0.253,-0.712,59.631,-66.833,69.580
0.928,-0.001,-0.572,35.400,-77.148,82.275
0.814,-0.077,-0.359,0.671,-84.839,83.618
0.744,-0.020,-0.132,-26.367,-82.581,73.364
0.647,0.029,0.031,-29.419,-76.721,53.467
0.631,0.102,0.024,-9.521,-64.514,37.170
0.619,0.201,-0.061,23.560,-50.598,25.513
0.516,0.210,-0.173,62.256,-43.030,14.343
0.500,0.144,-0.233,92.041,-35.583,9.216
0.477,0.049,-0.353,101.501,-32.166,8.667
0.380,-0.075,-0.412,87.646,-37.842,6.775
0.337,-0.103,-0.391,57.678,-52.490,6.409
0.231,-0.112,-0.329,30.151,-69.519,3.235
0.085,-0.135,-0.231,14.343,-85.999,-5.249
-0.052,-0.116,-0.096,9.338,-97.534,-12.146
-0.142,-0.087,-0.035,14.587,-101.990,-19.226
-0.218,-0.046,-0.025,23.926,-102.112,-26.855
-0.215,0.021,-0.071,31.677,-94.238,-33.264
-0.246,0.089,-0.140,33.386,-86.426,-37.170
-0.353,0.116,-0.128,29.175,-86.914,-35.278
-0.390,0.135,-0.044,21.484,-88.196,-24.658
-0.385,0.122,0.055,12.512,-88.379,-10.254
-0.310,0.091,0.090,5.981,-86.060,1.526
-0.334,0.044,0.183,1.282,-82.336,5.432
-0.384,0.014,0.293,0.122,-73.303,3.235
-0.390,0.030,0.316,5.737,-57.556,-1.831
-0.381,0.049,0.315,13.672,-42.786,-7.568
-0.416,0.078,0.309,18.433,-31.616,-11.353
-0.459,0.095,0.358,20.447,-19.653,-12.695
-0.501,0.113,0.417,19.714,-8.484,-9.888
-0.445,0.132,0.444,17.944,4.761,-3.296
-0.416,0.116,0.459,14.160,11.353,3.723
-0.423,0.085,0.499,8.728,11.963,10.132
-0.419,0.100,0.587,4.089,10.254,16.235
-0.371,0.056,0.624,2.991,9.766,20.386
-0.348,0.016,0.665,1.282,7.324,22.278
-0.310,0.004,0.743,-1.038,1.770,23.376
-0.298,-0.013,0.805,-3.357,-2.747,21.973
-0.304,-0.040,0.859,-4.456,-5.737,18.433
-0.309,-0.064,0.867,-3.540,-8.179,13.245
-0.311,-0.064,0.865,-1.587,-10.498,8.118
-0.305,-0.044,0.838,1.221,-10.620,4.150
-0.343,-0.042,0.820,4.700,-9.216,1.099
-0.371,-0.048,0.818,6.531,-6.714,0.916
-0.360,-0.047,0.800,5.798,-0.793,4.150
-0.338,-0.052,0.794,3.113,4.456,7.385
-0.328,-0.063,0.803,0.488,7.141,9.460
-0.319,-0.083,0.804,-1.831,7.751,10.925
-0.311,-0.075,0.796,-4.395,7.446,10.620
-0.309,-0.047,0.826,-7.263,5.249,8.606
-0.306,-0.052,0.842,-7.874,5.310,7.874
-0.320,-0.071,0.852,-7.935,5.493,7.202
-0.329,-0.081,0.895,-9.583,5.188,6.958
-0.323,-0.085,0.949,-10.864,5.615,7.385
-0.302,-0.099,0.992,-10.864,6.775,8.728
-0.295,-0.104,0.997,-9.460,7.935,10.193
-0.284,-0.111,0.987,-8.179,7.996,10.193
-0.279,-0.123,0.986,-7.202,8.606,10.254
-0.252,-0.129,0.939,-7.263,10.864,11.108
-0.251,-0.130,0.896,-8.606,10.376,10.254
-0.271,-0.119,0.901,-10.925,7.568,8.118
-0.305,-0.109,0.932,-12.268,5.493,6.897
-0.295,-0.095,0.938,-11.841,7.812,8.057
-0.292,-0.086,0.988,-10.132,8.057,9.216
-0.285,-0.098,1.003,-6.836,9.583,10.437
-0.275,-0.109,1.010,-5.005,10.010,11.719
-0.259,-0.120,1.008,-3.540,6.653,11.169
-0.239,-0.130,0.995,-3.052,4.944,9.155
-0.239,-0.124,0.983,-3.418,1.465,7.202
-0.237,-0.136,0.963,-3.784,-1.343,5.127
-0.232,-0.146,0.946,-5.127,-2.686,4.272
-0.214,-0.154,0.927,-6.714,-4.028,3.479
-0.209,-0.161,0.906,-8.118,-5.493,2.197
-0.217,-0.163,0.857,-9.033,-7.141,-0.793
-0.237,-0.150,0.829,-10.559,-10.620,-4.089
-0.282,-0.145,0.829,-12.878,-14.099,-6.226
-0.316,-0.121,0.838,-15.747,-15.442,-6.470
-0.326,-0.074,0.863,-17.761,-14.709,-5.493
-0.309,-0.042,0.869,-17.151,-12.451,-4.211
-0.279,-0.032,0.852,-14.587,-11.536,-3.235
-0.262,-0.028,0.841,-11.841,-12.085,-2.930
-0.246,-0.034,0.819,-9.644,-14.832,-3.418
-0.217,-0.044,0.763,-7.874,-18.311,-4.578
-0.192,-0.041,0.721,-7.629,-23.560,-6.775
-0.171,-0.043,0.644,-7.446,-29.114,-10.010
-0.211,-0.065,0.526,-5.432,-39.185,-14.771
1.387,0.227,2.109,79.834,-38.391,63.965
1.495,0.250,1.964,90.515,-52.612,57.495
1.547,0.279,1.740,95.520,-73.792,46.509
1.600,0.324,1.542,94.727,-92.041,34.790
1.592,0.398,1.365,93.628,-105.103,21.973
1.568,0.423,1.068,99.304,-111.938,11.536
1.527,0.479,0.788,109.558,-112.854,4.639
1.456,0.485,0.599,116.272,-107.971,0.427
1.343,0.392,0.383,112.244,-94.727,-0.854
1.187,0.412,0.310,95.703,-84.229,2.441
1.215,0.473,0.452,73.914,-80.017,8.118
1.287,0.585,0.484,56.580,-74.585,11.841
1.341,0.749,0.342,50.293,-79.346,12.756
1.288,0.748,0.226,61.279,-102.173,11.597
1.109,0.540,0.031,79.163,-132.202,13.123
0.914,0.381,-0.103,86.304,-155.151,20.874
0.793,0.243,-0.243,79.651,-159.973,28.625
0.665,0.156,-0.298,59.692,-152.283,30.945
0.552,0.160,-0.240,30.090,-135.925,31.860
0.575,0.238,-0.084,4.395,-113.586,34.851
0.677,0.358,0.111,-6.409,-94.421,39.490
0.675,0.357,0.115,1.526,-82.458,41.382
0.639,0.280,0.130,16.113,-77.759,38.269
0.573,0.209,0.120,26.367,-79.285,34.851
0.425,0.125,0.077,32.288,-81.177,29.236
0.305,0.071,0.127,36.621,-83.435,22.888
0.331,0.038,0.146,40.771,-82.458,18.921
0.242,-0.048,0.066,42.847,-82.153,13.428
0.168,-0.147,-0.005,39.612,-87.219,7.080
0.140,-0.147,0.020,28.992,-100.525,1.221
0.134,-0.102,0.017,18.127,-108.459,-6.287
0.076,-0.079,-0.043,14.465,-109.192,-16.174
0.010,-0.047,-0.084,13.611,-111.694,-25.635
-0.096,-0.039,-0.111,14.221,-113.281,-33.447
-0.197,-0.027,-0.169,16.174,-112.610,-38.818
-0.254,-0.021,-0.226,16.357,-107.849,-40.283
-0.351,-0.010,-0.254,13.000,-100.525,-36.194
-0.419,0.012,-0.243,8.789,-88.806,-28.564
-0.434,0.025,-0.196,5.493,-72.815,-19.958
-0.445,0.010,-0.158,2.502,-55.969,-10.925
-0.456,-0.015,-0.115,1.648,-40.222,-3.662
-0.435,-0.034,-0.076,0.488,-26.672,0.977
-0.409,-0.047,-0.040,-1.770,-18.799,3.601
-0.431,-0.049,-0.024,-2.319,-17.212,3.174
-0.443,-0.061,0.002,-1.099,-13.855,1.343
-0.451,-0.074,0.037,-2.014,-10.376,-0.977
-0.471,-0.088,0.109,-4.883,-8.423,-2.563
-0.499,-0.109,0.206,-7.263,-9.827,-2.808
-0.482,-0.112,0.296,-9.949,-13.062,-2.258
-0.445,-0.088,0.368,-13.245,-15.991,-2.075
-0.468,-0.082,0.422,-15.259,-19.836,-3.479
-0.491,-0.089,0.470,-13.428,-21.484,-4.395
-0.474,-0.096,0.455,-9.521,-16.785,-4.700
-0.481,-0.109,0.429,-6.775,-10.437,-5.432
-0.514,-0.120,0.451,-6.836,-5.432,-6.104
-0.522,-0.122,0.485,-8.972,2.136,-5.920
-0.501,-0.102,0.531,-12.634,9.888,-4.822
-0.500,-0.090,0.601,-16.113,14.709,-3.479
-0.478,-0.082,0.653,-18.616,17.761,-1.526
-0.453,-0.067,0.684,-20.691,18.555,-0.549
-0.470,-0.084,0.733,-23.254,16.724,-1.892
-0.478,-0.076,0.783,-25.269,15.198,-2.197
-0.460,-0.057,0.785,-25.146,13.733,-1.099
-0.468,-0.065,0.783,-23.621,11.963,-1.343
-0.456,-0.072,0.794,-23.865,11.780,-0.916
-0.441,-0.073,0.846,-25.085,10.315,1.282
-0.433,-0.079,0.864,-22.644,12.085,2.625
-0.406,-0.098,0.869,-19.958,13.611,1.953
-0.396,-0.122,0.876,-18.555,15.015,0.366
-0.411,-0.157,0.901,-18.188,15.869,-2.380
-0.425,-0.176,0.933,-19.592,15.808,-4.517
-0.418,-0.157,0.971,-22.522,15.930,-5.005
-0.391,-0.138,1.018,-23.376,15.381,-4.089
-0.359,-0.141,1.006,-20.386,15.442,-3.174
-0.348,-0.136,1.010,-18.188,14.038,-3.418
-0.345,-0.127,1.012,-17.334,12.085,-5.127
-0.339,-0.116,0.983,-15.991,10.559,-7.202
-0.348,-0.113,0.966,-14.099,7.507,-9.277
-0.355,-0.118,0.960,-12.085,4.028,-10.620
-0.363,-0.130,0.946,-10.010,2.808,-11.353
-0.350,-0.134,0.942,-8.789,1.404,-11.597
-0.351,-0.150,0.916,-7.202,1.160,-12.146
-0.381,-0.177,0.897,-7.019,0.977,-11.902
-0.365,-0.168,0.888,-8.789,2.563,-10.315
-0.332,-0.148,0.894,-11.292,4.211,-8.240
-0.323,-0.152,0.887,-13.367,4.028,-7.324
-0.327,-0.173,0.897,-13.794,3.235,-8.362
-0.304,-0.183,0.890,-14.465,0.732,-9.827
-0.286,-0.171,0.898,-15.381,-1.160,-10.620
-0.254,-0.155,0.907,-14.832,-3.052,-11.841
-0.213,-0.161,0.884,-10.803,-2.991,-13.855
-0.227,-0.187,0.845,-7.629,-6.409,-17.273
-0.297,-0.186,0.845,-6.409,-11.841,-22.034
-0.347,-0.167,0.860,-6.470,-13.245,-26.062
-0.376,-0.116,0.851,-6.348,-11.353,-27.405
-0.402,-0.077,0.865,-5.676,-9.705,-26.367
-0.404,-0.053,0.864,-4.883,-9.705,-23.682
-0.399,-0.032,0.851,-4.761,-9.521,-20.508
-0.377,-0.003,0.833,-3.784,-8.545,-19.104
-0.348,0.000,0.807,-1.221,-9.094,-18.799
-0.377,-0.041,0.744,1.892,-8.911,-19.592
-0.374,-0.082,0.713,2.136,-7.996,-18.982
-0.348,-0.115,0.700,-1.038,-5.249,-17.517
-0.382,-0.154,0.690,-5.310,-3.662,-16.785
-0.374,-0.157,0.754,-10.742,-1.770,-17.700
-0.365,-0.137,0.767,-16.907,3.357,-19.531
-0.382,-0.082,0.808,-22.034,5.737,-23.315
-0.396,-0.033,0.882,-23.987,5.005,-27.100
-0.376,0.015,0.923,-21.973,5.249,-28.381
-0.374,0.044,0.953,-16.785,5.981,-27.405
-0.362,0.050,0.982,-9.216,7.202,-24.658
-0.309,0.020,0.959,1.160,10.193,-19.897
-0.286,-0.051,0.878,11.414,11.841,-15.503
-0.283,-0.104,0.814,17.639,10.254,-14.404
-0.247,-0.135,0.767,18.555,9.766,-16.357
-0.254,-0.159,0.691,15.991,10.376,-20.630
-0.312,-0.156,0.681,10.742,8.240,-26.306
-0.308,-0.105,0.720,2.991,9.216,-31.799
-0.282,-0.047,0.770,-4.456,12.817,-34.119
-0.896,0.266,2.938,10.437,-21.423,28.625
-0.858,0.273,3.053,41.870,-16.602,49.988
-0.746,0.241,3.105,73.242,-10.620,67.871
-0.593,0.193,3.119,100.586,-7.385,77.942
-0.396,0.115,3.024,121.338,-10.498,81.482
-0.243,0.031,2.957,131.531,-16.907,79.224
-0.083,-0.001,2.853,134.216,-17.212,71.838
0.105,-0.050,2.634,131.531,-12.756,61.157
0.234,-0.070,2.489,120.667,-10.681,48.584
0.432,-0.058,2.328,103.577,-9.766,37.537
0.518,0.032,2.138,81.055,-12.024,24.902
0.545,0.011,2.103,55.725,-21.729,10.925
0.583,0.057,2.008,30.151,-26.733,-1.404
0.669,0.133,1.904,6.287,-30.701,-10.864
0.731,0.161,1.849,-16.235,-39.856,-20.020
0.849,0.240,1.792,-33.997,-52.368,-25.391
0.911,0.275,1.764,-40.588,-64.697,-23.926
0.966,0.247,1.741,-37.048,-78.735,-18.860
1.019,0.217,1.723,-28.564,-90.576,-12.329
1.050,0.216,1.643,-17.517,-99.915,-7.019
0.990,0.196,1.612,-5.066,-108.643,-2.808
0.951,0.219,1.620,12.939,-112.915,5.920
1.013,0.292,1.553,37.903,-109.680,16.907
1.018,0.302,1.393,66.895,-101.563,22.827
0.902,0.224,1.263,89.783,-93.689,25.757
0.851,0.222,1.227,97.473,-82.581,30.518
0.958,0.341,1.141,94.421,-71.045,36.560
1.046,0.431,1.066,89.661,-66.162,38.879
1.145,0.522,0.955,84.900,-67.200,37.231
1.247,0.575,0.865,77.942,-69.702,33.569
1.340,0.627,0.738,70.068,-75.867,32.898
1.395,0.593,0.596,66.956,-84.473,33.020
1.354,0.569,0.480,62.195,-96.985,32.166
1.360,0.575,0.277,55.847,-108.582,32.166
1.305,0.588,0.034,51.270,-121.521,33.081
1.101,0.482,-0.283,41.199,-141.785,33.447
1.013,0.413,-0.445,37.842,-144.104,36.316
0.902,0.313,-0.503,34.973,-141.602,40.894
0.778,0.223,-0.472,33.508,-124.146,42.480
0.738,0.169,-0.414,23.804,-62.683,45.044
0.705,0.049,-0.210,21.240,-37.354,43.457
0.726,-0.015,-0.082,21.484,-22.095,42.480
0.717,-0.099,0.025,25.269,-16.785,41.687
0.683,-0.219,0.118,35.217,-18.250,38.879
0.702,-0.370,0.099,47.363,-20.569,33.630
0.642,-0.506,0.027,51.697,-27.649,22.278
0.466,-0.584,-0.044,42.236,-44.434,3.357
0.263,-0.515,0.017,20.142,-63.721,-18.677
0.124,-0.290,0.097,-1.587,-76.721,-39.246
-0.000,-0.124,0.081,-7.385,-78.857,-57.556
-0.146,-0.006,0.076,-1.587,-79.529,-70.007
-0.228,0.022,0.050,11.353,-76.660,-71.899
-0.262,-0.004,-0.032,32.532,-66.833,-55.054
-0.275,0.012,-0.020,27.405,-60.181,-45.349
-0.258,0.024,0.033,8.484,-65.491,-30.273
-0.242,-0.049,0.040,-0.610,-72.632,-29.541
-0.275,-0.104,0.010,-10.742,-81.665,-31.982
-0.323,-0.106,0.016,-21.484,-87.769,-37.537
-0.364,-0.060,0.095,-30.579,-88.867,-42.297
-0.412,-0.007,0.129,-31.128,-83.069,-43.762
-0.491,0.051,0.188,-23.132,-73.547,-43.884
-0.544,0.079,0.207,-11.536,-57.861,-42.114
-0.569,0.100,0.246,-2.808,-38.025,-37.781
-0.573,0.133,0.304,1.404,-17.395,-29.053
-0.558,0.149,0.331,3.113,0.793,-18.250
-0.541,0.142,0.381,2.075,12.573,-7.690
-0.525,0.116,0.458,-1.831,18.921,1.526
-0.495,0.111,0.530,-7.263,23.804,9.277
-0.452,0.078,0.576,-12.329,29.236,15.747
-0.422,0.041,0.608,-15.808,29.297,20.081
-0.378,0.022,0.671,-18.250,24.353,22.156
-0.351,-0.006,0.711,-18.250,20.813,22.095
-0.345,-0.029,0.718,-15.198,19.836,19.043
-0.331,-0.036,0.739,-10.986,21.179,14.221
-0.317,-0.050,0.739,-6.042,23.071,9.277
-0.346,-0.059,0.736,-3.418,23.437,4.150
-0.371,-0.058,0.781,-5.249,22.522,0.061
-0.375,-0.030,0.829,-10.193,22.644,-0.305
-0.372,0.000,0.890,-16.174,19.287,1.282
-0.365,0.020,0.946,-19.775,15.076,2.502
-0.358,0.024,0.970,-20.325,11.719,4.211
-0.338,0.012,0.965,-18.005,9.521,6.287
-0.320,-0.008,0.948,-15.076,8.423,7.141
-0.305,-0.021,0.893,-12.268,8.240,7.019
-0.309,-0.039,0.866,-10.315,7.385,5.188
-0.320,-0.059,0.870,-10.986,6.348,4.150
-0.312,-0.060,0.863,-14.221,6.897,4.578
-0.320,-0.060,0.887,-18.494,6.653,5.127
-0.326,-0.063,0.926,-21.301,5.432,6.042
-0.300,-0.057,0.947,-21.301,5.249,7.263
-0.271,-0.042,0.940,-18.982,6.104,7.812
-0.260,-0.041,0.912,-14.526,5.432,6.775
-0.272,-0.037,0.866,-10.071,4.272,4.395
-0.283,-0.048,0.818,-6.897,3.052,2.136
-0.306,-0.059,0.818,-6.165,3.113,0.916
-0.313,-0.047,0.840,-6.714,4.578,2.258
-0.309,-0.046,0.857,-6.592,7.996,4.578
-0.262,-0.045,0.881,-5.249,9.705,8.179
-0.200,-0.048,0.879,-3.723,8.911,11.902
-0.183,-0.087,0.867,-4.883,5.676,12.756
-0.187,-0.103,0.913,-9.094,0.793,11.292
-0.107,-0.074,0.930,-8.240,-2.380,10.010
-0.117,-0.095,0.872,0.732,-3.845,7.080
-0.182,-0.151,0.833,9.888,-7.751,1.282
-0.232,-0.172,0.823,12.085,-11.047,-3.845
-0.211,-0.151,0.797,10.681,-10.559,-6.836
-0.217,-0.158,0.767,10.498,-9.155,-9.888
-0.228,-0.193,0.772,9.094,-8.179,-13.611
-0.194,-0.181,0.788,3.906,-6.226,-14.160
-0.167,-0.187,0.815,0.610,-4.150,-14.282
-0.144,-0.202,0.844,-0.610,-3.296,-15.015
-0.117,-0.215,0.843,0.427,-3.906,-15.625
-0.127,-0.244,0.791,2.136,-6.653,-19.592
-0.168,-0.264,0.771,0.122,-12.939,-27.893
-0.197,-0.237,0.778,-5.554,-19.470,-36.255
-0.232,-0.191,0.773,-10.254,-24.475,-42.847
-0.265,-0.150,0.791,-12.512,-28.748,-46.997
-0.238,-0.103,0.770,-11.658,-31.433,-47.119
-0.254,-0.082,0.749,-10.986,-31.799,-45.715
0.018,-0.047,3.286,162.109,57.800,157.593
0.426,-0.115,2.995,237.122,86.487,185.059
0.922,-0.235,2.496,307.068,106.567,188.477
1.347,-0.437,1.896,347.961,100.769,156.555
1.514,-0.770,1.298,340.393,71.411,84.595
1.399,-0.984,0.972,280.945,18.005,-7.446
1.068,-0.870,0.973,191.895,-44.373,-78.003
0.751,-0.680,1.156,109.497,-93.323,-115.662
0.572,-0.616,1.192,49.683,-116.638,-125.977
0.513,-0.537,1.175,4.150,-126.831,-112.671
0.428,-0.450,1.238,-30.884,-135.864,-87.219
0.332,-0.353,1.365,-51.819,-141.663,-56.335
0.252,-0.322,1.518,-58.350,-138.977,-21.790
0.206,-0.335,1.679,-55.054,-126.526,14.038
0.273,-0.297,1.804,-45.166,-108.032,49.072
0.421,-0.218,1.895,-31.006,-91.003,78.064
0.554,-0.224,2.059,-11.841,-80.933,96.313
0.789,-0.224,2.100,14.465,-77.087,106.140
1.147,-0.319,1.952,45.349,-74.097,97.961
1.251,-0.433,1.690,68.787,-80.627,67.383
1.321,-0.416,1.555,65.796,-105.164,34.058
1.359,-0.264,1.534,49.500,-131.958,11.169
1.388,-0.170,1.388,41.443,-149.658,-1.221
1.408,-0.131,1.109,34.729,-164.429,-5.432
1.390,-0.013,0.982,20.630,-183.044,-4.456
1.311,0.079,0.867,7.141,-195.190,1.221
1.318,0.194,0.664,-2.319,-194.946,11.108
1.300,0.296,0.412,-8.972,-191.589,18.005
1.160,0.373,0.266,-12.024,-192.383,16.357
1.147,0.473,0.138,-11.414,-188.049,11.536
1.124,0.530,-0.055,-7.324,-174.377,3.357
0.953,0.529,-0.226,-5.310,-159.790,-10.254
0.812,0.578,-0.233,-13.367,-146.973,-20.874
0.770,0.653,-0.228,-26.672,-128.845,-25.513
0.740,0.680,-0.240,-36.316,-103.882,-27.771
0.735,0.600,-0.191,-44.617,-83.374,-23.621
0.741,0.525,-0.153,-53.406,-66.467,-10.864
0.674,0.480,-0.084,-63.538,-53.406,9.033
0.721,0.440,-0.006,-70.007,-43.762,38.208
0.802,0.349,-0.064,-67.566,-36.926,67.139
0.761,0.180,-0.104,-59.998,-40.283,87.463
0.675,0.017,-0.117,-54.321,-48.889,98.511
0.658,-0.144,-0.105,-49.622,-55.664,101.135
0.537,-0.340,-0.083,-47.241,-56.152,91.980
0.337,-0.474,-0.010,-49.316,-51.270,72.876
0.198,-0.470,0.130,-52.979,-43.579,53.162
0.169,-0.391,0.254,-50.049,-35.828,33.936
0.038,-0.364,0.243,-36.560,-33.630,12.939
-0.059,-0.302,0.252,-21.667,-39.551,-3.113
-0.144,-0.217,0.332,-14.343,-47.363,-15.747
-0.141,-0.093,0.343,-11.536,-51.331,-23.987
-0.167,-0.005,0.283,-6.348,-54.504,-29.907
-0.215,0.041,0.203,-0.671,-62.805,-34.485
-0.216,0.058,0.089,5.005,-75.256,-37.170
-0.252,0.032,-0.077,12.146,-85.999,-40.649
-0.346,0.014,-0.113,14.404,-90.149,-45.410
-0.410,-0.002,-0.152,11.292,-82.642,-46.631
-0.451,-0.000,-0.126,5.798,-67.688,-41.443
-0.475,0.015,-0.044,-0.732,-49.561,-33.569
-0.493,0.040,0.091,-7.751,-32.349,-24.414
-0.500,0.052,0.236,-10.986,-18.738,-13.550
-0.480,0.061,0.382,-10.559,-7.874,-3.967
-0.456,0.035,0.497,-8.362,2.319,3.235
-0.425,0.014,0.565,-5.005,10.254,9.399
-0.384,-0.021,0.596,-1.221,14.465,13.245
-0.380,-0.074,0.614,0.366,15.015,13.184
-0.388,-0.077,0.644,-1.892,16.235,11.841
-0.377,-0.076,0.686,-4.883,20.691,9.338
-0.367,-0.072,0.723,-7.019,24.353,6.287
-0.388,-0.076,0.773,-7.935,24.719,3.967
-0.394,-0.069,0.859,-9.033,24.475,3.845
-0.376,-0.059,0.910,-9.094,22.949,4.639
-0.325,-0.039,0.928,-6.592,22.522,5.493
-0.328,-0.052,0.915,-3.662,17.517,5.371
-0.340,-0.067,0.903,-1.953,10.376,4.028
-0.348,-0.087,0.878,-2.869,5.859,2.380
-0.352,-0.077,0.890,-8.606,1.404,1.709
-0.339,-0.058,0.923,-13.550,-0.854,1.709
-0.348,-0.043,0.948,-15.564,-1.099,1.953
-0.358,-0.051,0.959,-15.076,-0.610,2.197
-0.363,-0.054,0.968,-13.733,1.587,2.441
-0.345,-0.068,0.960,-12.329,3.723,2.991
-0.344,-0.090,0.965,-10.681,6.897,4.150
-0.335,-0.115,0.993,-10.315,9.644,6.348
-0.307,-0.143,1.003,-11.047,12.573,9.216
-0.275,-0.147,1.015,-11.963,13.611,10.376
-0.251,-0.140,1.026,-11.963,11.658,9.888
-0.250,-0.147,1.024,-10.254,9.094,7.690
-0.259,-0.150,1.007,-7.812,7.568,5.432
-0.265,-0.146,0.991,-5.432,6.958,2.991
-0.270,-0.142,0.965,-3.784,7.019,0.854
-0.271,-0.132,0.950,-2.930,7.080,-0.610
-0.277,-0.133,0.935,-3.235,6.409,-1.892
-0.283,-0.129,0.932,-3.845,4.639,-2.014
-0.279,-0.130,0.916,-4.822,3.540,-1.709
-0.274,-0.127,0.911,-6.592,2.075,-1.587
-0.284,-0.126,0.935,-8.301,0.427,-0.549
-0.276,-0.132,0.946,-9.766,0.183,1.038
-0.265,-0.143,0.930,-11.047,0.122,2.502
-0.265,-0.145,0.940,-13.123,-1.526,2.991
-0.264,-0.144,0.950,-14.771,-3.235,3.540
-0.238,-0.149,0.941,-14.893,-3.906,4.211
-0.221,-0.165,0.911,-14.526,-4.150,3.784
-0.226,-0.171,0.898,-15.564,-5.432,1.343
-0.236,-0.160,0.889,-17.578,-7.690,-1.770
-0.249,-0.135,0.858,-18.555,-9.705,-5.371
-0.272,-0.110,0.845,-18.799,-11.475,-9.399
-0.305,-0.087,0.877,-19.104,-11.963,-12.817
-0.316,-0.073,0.892,-17.761,-9.766,-13.489
-0.299,-0.063,0.880,-15.503,-7.019,-11.841
-0.293,-0.062,0.868,-13.184,-5.554,-9.827
-0.304,-0.075,0.861,-11.963,-5.615,-8.240
-0.297,-0.096,0.847,-12.146,-5.127,-6.348
-0.260,-0.075,0.888,-13.550,-4.578,-3.601
-0.243,-0.098,0.892,-12.878,-4.150,-2.319
-0.215,-0.114,0.897,-11.230,-3.601,-1.404
-0.194,-0.149,0.891,-9.949,-3.662,-1.831
-0.185,-0.164,0.894,-9.766,-4.150,-3.967
-0.145,-0.156,0.884,-9.094,-5.432,-6.104
-0.233,-0.551,2.842,62.500,-100.159,10.498
-0.183,-0.585,2.929,45.715,-99.670,1.160
-0.093,-0.582,3.106,16.418,-103.027,-1.831
0.047,-0.549,3.360,-16.357,-112.732,-0.610
0.301,-0.483,3.643,-40.100,-124.207,8.423
0.460,-0.512,3.948,-45.105,-138.184,23.376
0.683,-0.543,4.000,-20.508,-152.283,40.771
1.122,-0.501,4.000,24.902,-162.842,57.739
1.616,-0.421,3.739,79.407,-182.007,69.458
2.003,-0.392,3.244,128.113,-204.346,69.214
2.289,-0.341,2.731,156.738,-225.403,57.922
2.475,-0.236,2.285,164.551,-238.220,41.016
2.496,-0.187,1.900,159.363,-241.211,20.996
2.395,-0.095,1.564,145.325,-233.337,1.099
2.244,0.032,1.248,124.329,-215.576,-14.282
2.123,0.201,1.063,96.619,-197.388,-20.996
1.948,0.427,1.055,66.223,-184.570,-16.724
1.876,0.603,1.131,47.058,-169.250,-5.920
1.834,0.739,1.052,48.340,-149.780,11.169
1.837,0.785,0.857,68.848,-135.193,25.391
1.861,0.768,0.586,92.529,-125.610,29.358
1.920,0.710,0.234,108.765,-119.995,22.156
1.850,0.611,-0.176,109.131,-119.873,-0.366
1.692,0.559,-0.420,88.989,-125.549,-29.541
1.509,0.580,-0.594,54.932,-133.240,-51.147
1.229,0.594,-0.639,16.357,-143.188,-64.575
1.023,0.655,-0.645,-19.226,-147.095,-68.115
0.855,0.682,-0.579,-46.692,-144.348,-61.951
0.716,0.693,-0.481,-61.829,-141.785,-50.110
0.653,0.716,-0.389,-60.242,-131.409,-34.119
0.620,0.737,-0.451,-42.480,-116.028,-18.005
0.570,0.619,-0.612,-17.761,-102.661,-10.254
0.465,0.448,-0.821,-3.784,-93.750,-7.996
0.362,0.342,-0.923,-7.751,-90.576,-7.324
0.278,0.272,-0.917,-22.705,-90.576,-7.446
0.170,0.212,-0.857,-43.213,-90.942,-9.705
0.033,0.181,-0.688,-63.843,-90.820,-12.390
-0.065,0.145,-0.493,-78.552,-86.670,-13.123
-0.102,0.115,-0.354,-82.947,-78.796,-11.475
-0.119,0.082,-0.216,-78.125,-70.984,-11.108
-0.161,0.049,-0.143,-66.467,-64.209,-12.451
-0.147,0.002,-0.161,-49.683,-56.824,-15.076
-0.180,-0.036,-0.169,-36.499,-52.551,-21.118
-0.253,-0.015,-0.125,-29.419,-49.500,-25.635
-0.305,0.023,-0.056,-24.048,-45.044,-26.489
-0.321,0.057,0.018,-19.531,-41.687,-24.963
-0.341,0.061,0.063,-15.259,-40.527,-22.034
-0.356,0.042,0.120,-11.780,-41.443,-19.287
-0.354,0.007,0.145,-10.132,-41.016,-16.113
-0.364,-0.043,0.154,-11.169,-39.551,-13.672
-0.381,-0.060,0.192,-15.869,-35.278,-11.475
-0.398,-0.069,0.223,-21.484,-26.245,-10.498
-0.415,-0.032,0.251,-26.794,-15.747,-10.742
-0.458,0.027,0.318,-32.593,-7.874,-12.573
-0.519,0.086,0.416,-39.429,-1.221,-14.221
-0.568,0.149,0.550,-42.847,5.493,-12.268
-0.561,0.178,0.646,-38.879,13.611,-7.080
-0.534,0.169,0.701,-30.273,20.813,-1.160
-0.502,0.150,0.750,-20.996,25.574,3.296
-0.494,0.117,0.761,-13.916,30.029,4.456
-0.518,0.080,0.743,-7.996,34.180,3.052
-0.527,0.074,0.726,-4.578,36.438,1.892
-0.513,0.068,0.693,-5.981,37.842,1.709
-0.506,0.063,0.704,-11.597,35.278,1.892
-0.506,0.030,0.696,-19.592,27.344,1.099
-0.526,0.075,0.841,-25.940,12.390,1.892
-0.513,0.052,0.977,-24.475,19.958,1.343
-0.463,0.058,1.012,-19.714,21.240,1.221
-0.466,0.031,1.039,-16.968,17.029,0.305
-0.469,-0.001,1.023,-14.343,12.817,-2.686
-0.472,-0.029,1.054,-15.686,5.066,-6.775
-0.480,-0.061,1.067,-15.015,4.639,-8.118
-0.480,-0.055,1.073,-12.878,4.761,-8.850
-0.482,-0.036,1.075,-6.287,6.470,-9.644
-0.519,-0.023,1.032,-1.221,7.446,-8.728
-0.520,-0.018,1.022,-0.061,7.996,-6.775
-0.511,0.002,1.047,-1.953,6.897,-3.906
-0.490,0.003,1.072,-0.366,5.981,-0.854
-0.458,-0.019,1.034,4.028,5.920,0.427
-0.447,-0.055,1.006,6.714,4.028,-0.488
-0.444,-0.077,0.988,6.348,1.404,-2.563
-0.446,-0.086,0.977,4.883,1.587,-4.089
-0.446,-0.084,0.973,2.502,1.160,-3.967
-0.445,-0.097,0.957,1.465,1.709,-4.211
-0.447,-0.100,0.966,-0.427,1.160,-4.578
-0.443,-0.082,0.993,-4.089,-1.526,-4.517
-0.448,-0.067,1.005,-5.310,-1.892,-4.944
-0.453,-0.051,1.027,-5.005,-2.747,-5.127
-0.459,-0.045,1.027,-2.625,-3.601,-4.700
-0.459,-0.046,1.003,0.793,-4.211,-4.517
-0.458,-0.043,0.989,3.174,-5.493,-4.211
-0.462,-0.048,0.972,4.333,-6.348,-3.845
-0.458,-0.055,0.940,4.456,-6.592,-3.174
-0.427,-0.054,0.919,2.747,-6.531,-3.174
-0.442,-0.040,0.923,0.854,-8.179,-4.333
-0.446,-0.037,0.915,-0.122,-7.812,-5.432
-0.452,-0.024,0.920,0.427,-6.897,-5.615
-0.451,-0.025,0.911,2.380,-6.531,-4.944
-0.440,-0.023,0.895,4.333,-5.371,-4.333
-0.446,-0.028,0.874,5.066,-3.967,-3.723
-0.444,-0.029,0.852,4.395,-3.174,-2.930
-0.438,-0.029,0.829,3.296,-2.258,-2.380
-0.434,-0.021,0.809,1.343,-2.441,-2.502
-0.440,-0.005,0.801,-1.404,-4.211,-3.052
-0.454,0.000,0.797,-3.418,-5.005,-3.113
-0.448,0.008,0.794,-4.883,-4.822,-2.319
-0.445,0.004,0.795,-4.883,-4.089,-1.465
-0.440,-0.004,0.791,-4.395,-2.869,-1.343
-0.441,-0.011,0.779,-4.761,-1.709,-1.526
-0.454,0.002,0.775,-5.127,-1.465,-1.709
-0.456,0.005,0.777,-6.409,-1.770,-1.709
-0.455,0.007,0.790,-8.789,-1.831,-1.221
-0.453,0.012,0.814,-10.803,-1.892,-0.793
-0.445,0.014,0.828,-10.925,-0.977,-0.488
-0.439,0.005,0.824,-9.033,0.061,-0.183
-0.428,0.008,0.809,-6.958,0.488,-1.221
-0.428,0.016,0.795,-5.615,0.244,-3.418
-0.443,0.026,0.789,-4.822,-0.305,-5.737
-0.459,0.027,0.780,-4.456,-0.732,-6.836
0.475,0.470,2.879,45.044,-127.502,24.109
0.644,0.481,2.860,59.082,-128.723,30.640
0.816,0.493,2.847,72.693,-127.991,36.255
0.968,0.508,2.798,83.679,-132.019,39.551
1.087,0.524,2.714,92.896,-134.827,36.804
1.223,0.583,2.652,99.426,-134.094,35.156
1.340,0.610,2.517,110.962,-130.798,35.522
1.436,0.625,2.327,123.474,-127.441,34.424
1.519,0.678,2.139,133.545,-123.535,31.799
1.508,0.714,1.939,139.404,-123.657,32.593
1.480,0.786,1.865,138.367,-132.751,35.950
1.422,0.841,1.765,139.282,-143.188,36.072
1.306,0.947,1.682,145.020,-153.015,35.339
1.224,1.027,1.440,156.738,-159.790,37.476
1.123,1.107,1.128,168.396,-161.072,40.100
1.030,1.121,0.716,176.941,-153.259,42.480
1.012,1.112,0.318,177.002,-143.860,48.889
0.971,1.050,0.017,163.574,-135.315,54.138
0.919,1.007,-0.073,139.954,-124.023,56.580
0.990,0.966,-0.040,119.812,-109.314,62.805
1.026,0.800,-0.139,109.680,-98.145,67.932
0.966,0.685,-0.180,96.863,-93.689,61.768
0.940,0.594,-0.168,79.041,-91.003,52.551
0.915,0.475,-0.216,62.195,-93.567,49.011
0.854,0.379,-0.224,41.687,-103.394,44.861
0.794,0.318,-0.134,19.836,-110.291,39.246
0.736,0.256,-0.058,6.165,-112.610,36.743
0.665,0.216,-0.056,3.479,-110.901,31.616
0.541,0.198,-0.057,5.554,-105.957,20.569
0.412,0.183,-0.061,11.169,-97.656,13.306
0.339,0.168,-0.094,16.357,-85.938,12.939
0.252,0.118,-0.175,18.555,-77.576,12.390
0.170,0.084,-0.165,14.221,-77.148,10.315
0.151,0.062,-0.059,4.700,-81.482,9.888
0.145,0.036,0.051,-2.197,-86.975,9.216
0.126,-0.012,0.098,0.671,-90.210,3.601
0.131,-0.047,0.119,11.414,-88.928,-3.540
0.149,-0.102,0.088,22.888,-83.496,-9.705
0.115,-0.162,0.026,30.640,-79.407,-15.808
0.056,-0.212,-0.053,32.654,-75.867,-20.569
-0.001,-0.229,-0.101,28.564,-72.266,-22.644
-0.048,-0.222,-0.113,19.653,-72.144,-24.780
-0.164,-0.166,-0.046,9.338,-74.524,-29.236
-0.235,-0.109,-0.004,6.409,-70.129,-30.762
-0.280,-0.086,-0.038,9.705,-61.707,-27.100
-0.312,-0.098,-0.085,11.597,-53.589,-22.400
-0.337,-0.089,-0.078,8.057,-47.424,-18.433
-0.359,-0.077,-0.026,2.075,-43.640,-14.465
-0.398,-0.107,0.010,-2.014,-40.894,-10.803
-0.418,-0.107,0.088,-7.385,-36.865,-8.423
-0.447,-0.110,0.184,-12.024,-30.273,-6.348
-0.474,-0.139,0.240,-11.902,-23.254,-2.380
-0.469,-0.173,0.277,-10.437,-17.212,2.502
-0.462,-0.197,0.283,-10.986,-13.000,4.944
-0.450,-0.184,0.327,-14.404,-10.742,5.066
-0.465,-0.207,0.358,-17.944,-9.094,3.723
-0.476,-0.214,0.428,-21.484,-6.226,2.930
-0.484,-0.201,0.520,-23.987,-1.526,2.380
-0.478,-0.193,0.584,-22.217,4.456,2.319
-0.442,-0.203,0.611,-17.029,8.911,1.648
-0.479,-0.208,0.609,-11.658,5.005,-0.183
-0.482,-0.215,0.561,-6.775,3.601,-3.174
-0.502,-0.214,0.521,-6.165,4.639,-6.226
-0.506,-0.176,0.550,-10.254,6.653,-8.179
-0.528,-0.156,0.603,-15.320,8.667,-8.972
-0.550,-0.158,0.657,-18.860,10.254,-9.155
-0.543,-0.125,0.747,-21.118,11.169,-7.935
-0.539,-0.123,0.789,-19.836,12.390,-6.531
-0.540,-0.140,0.814,-16.724,13.611,-3.479
-0.529,-0.172,0.805,-13.489,14.709,0.122
-0.521,-0.207,0.789,-13.062,15.808,2.258
-0.519,-0.202,0.796,-15.686,15.747,1.953
-0.527,-0.193,0.797,-18.127,14.771,1.282
-0.530,-0.184,0.793,-19.531,13.550,0.488
-0.541,-0.175,0.804,-21.118,12.634,-0.427
-0.547,-0.155,0.847,-23.071,12.207,-0.305
-0.542,-0.147,0.890,-22.644,13.062,0.061
-0.533,-0.146,0.915,-20.264,13.489,0.122
-0.530,-0.146,0.928,-17.090,13.916,0.183
-0.521,-0.143,0.935,-14.893,14.160,-0.061
-0.517,-0.151,0.932,-13.550,13.184,0.183
-0.515,-0.164,0.918,-12.878,12.512,1.160
-0.505,-0.179,0.910,-14.221,10.864,2.625
-0.486,-0.190,0.903,-16.968,9.399,3.418
-0.484,-0.180,0.923,-21.240,7.141,2.747
-0.486,-0.167,0.933,-24.231,4.089,0.366
-0.489,-0.145,0.933,-25.391,1.831,-1.770
-0.486,-0.129,0.925,-26.184,0.427,-3.113
-0.516,-0.128,0.901,-26.367,-1.099,-4.578
-0.512,-0.114,0.890,-25.696,-1.831,-5.798
-0.519,-0.096,0.871,-23.804,-0.549,-6.409
-0.526,-0.092,0.863,-22.888,0.244,-5.920
-0.532,-0.086,0.874,-22.949,1.648,-4.395
-0.523,-0.073,0.887,-22.949,3.662,-2.869
-0.519,-0.067,0.901,-21.484,6.226,-2.136
-0.510,-0.069,0.888,-18.677,9.094,-1.770
-0.499,-0.070,0.880,-16.052,11.719,-0.732
-0.497,-0.090,0.852,-14.648,13.123,0.488
-0.470,-0.091,0.822,-14.587,13.489,1.709
-0.472,-0.102,0.790,-16.357,11.841,1.587
-0.504,-0.097,0.801,-20.325,10.193,0.122
-0.492,-0.067,0.829,-24.353,11.658,-0.854
-0.472,-0.047,0.849,-25.024,13.306,-0.366
-0.470,-0.052,0.877,-24.170,15.808,-1.282
-0.469,-0.054,0.903,-21.667,19.470,-2.441
-0.456,-0.068,0.913,-17.395,21.912,-2.808
-0.440,-0.079,0.900,-12.329,24.109,-3.845
-0.420,-0.080,0.889,-9.033,24.475,-5.249
-0.430,-0.092,0.871,-7.202,22.644,-5.371
-0.427,-0.083,0.870,-7.690,20.447,-5.127
-0.414,-0.072,0.882,-9.949,18.005,-4.578
-0.411,-0.070,0.905,-11.902,14.954,-4.211
-0.403,-0.086,0.898,-12.939,12.024,-4.333
-0.408,-0.094,0.883,-14.526,8.850,-5.005
-0.412,-0.086,0.896,-16.846,6.042,-5.432
-0.409,-0.082,0.901,-17.700,3.540,-4.822
-0.416,-0.091,0.906,-18.066,0.916,-4.211
-0.420,-0.093,0.909,-17.822,0.000,-5.066
-0.401,-0.081,0.915,-16.907,0.977,-6.714
0.498,-0.123,3.427,87.402,-98.145,30.334
0.581,-0.083,3.662,90.759,-124.817,21.362
0.673,-0.045,3.837,105.530,-144.897,14.404
0.871,-0.069,3.879,130.127,-155.029,13.428
1.073,-0.103,3.889,153.015,-167.908,17.700
1.301,-0.136,3.885,169.373,-183.105,19.043
1.602,-0.193,3.784,178.955,-196.899,13.367
1.757,-0.191,3.597,185.547,-218.994,4.272
1.953,-0.179,3.382,184.448,-232.849,-10.437
2.053,-0.116,3.166,174.316,-245.239,-23.499
2.132,0.022,3.027,160.828,-258.362,-30.823
2.193,0.116,2.882,150.452,-273.193,-31.250
2.256,0.240,2.684,148.315,-285.950,-31.738
2.237,0.343,2.347,151.428,-291.443,-38.696
2.134,0.479,1.974,157.959,-298.645,-44.861
1.999,0.587,1.544,161.499,-304.687,-45.959
1.860,0.695,1.135,156.982,-300.293,-41.870
1.688,0.788,0.853,145.935,-287.109,-33.203
1.598,0.870,0.577,135.437,-268.372,-20.569
1.469,0.949,0.279,128.662,-247.742,-10.437
1.283,1.035,-0.066,124.451,-226.990,-7.812
1.141,1.138,-0.444,119.751,-209.839,-5.859
0.984,1.211,-0.796,107.483,-194.397,-2.625
0.751,1.226,-1.011,84.106,-179.443,0.061
0.589,1.196,-1.066,59.326,-159.241,10.925
0.613,1.101,-1.033,42.358,-129.456,31.128
0.748,0.919,-1.002,29.968,-91.736,50.720
0.871,0.740,-0.860,11.780,-61.157,59.937
1.049,0.576,-0.614,-8.728,-44.983,61.462
1.167,0.408,-0.450,-25.818,-38.330,56.213
1.163,0.239,-0.367,-41.687,-40.588,40.405
1.105,0.205,-0.257,-60.791,-48.279,19.348
0.958,0.189,-0.251,-77.881,-57.312,-1.465
0.651,0.230,-0.318,-91.187,-70.190,-17.883
0.354,0.326,-0.429,-103.943,-83.496,-23.804
0.117,0.415,-0.471,-116.455,-95.032,-18.799
-0.068,0.442,-0.474,-127.686,-103.455,-5.310
-0.193,0.413,-0.450,-132.568,-101.379,12.329
-0.199,0.364,-0.314,-133.057,-90.027,30.396
-0.127,0.275,-0.164,-124.268,-71.838,46.082
-0.093,0.101,-0.099,-106.995,-51.208,55.664
-0.020,-0.029,0.030,-89.661,-29.724,59.814
0.081,-0.130,0.154,-72.876,-10.132,62.012
0.125,-0.249,0.168,-53.345,2.686,58.105
0.131,-0.357,0.141,-35.950,11.719,46.143
0.108,-0.384,0.111,-28.564,16.113,31.006
0.046,-0.368,0.066,-29.114,14.404,16.724
-0.056,-0.307,0.135,-38.269,10.376,0.549
-0.164,-0.221,0.256,-50.537,9.338,-12.085
-0.244,-0.142,0.380,-56.091,10.132,-18.250
-0.329,-0.084,0.443,-54.077,11.292,-17.395
-0.359,-0.062,0.484,-49.500,10.925,-8.606
-0.335,-0.075,0.502,-46.448,9.399,4.761
-0.299,-0.097,0.559,-48.096,7.935,13.367
-0.280,-0.101,0.690,-52.368,8.850,15.930
-0.274,-0.131,0.796,-51.697,13.245,14.648
-0.280,-0.140,0.883,-45.715,16.968,10.376
-0.287,-0.147,0.904,-35.828,20.996,4.333
-0.284,-0.139,0.914,-26.794,25.330,-0.854
-0.306,-0.115,0.921,-20.447,29.419,-5.127
-0.332,-0.090,0.928,-15.686,33.630,-7.202
-0.335,-0.047,0.923,-13.062,35.400,-7.446
-0.357,-0.031,0.930,-13.367,32.043,-7.568
-0.374,-0.007,0.969,-15.930,25.330,-7.751
-0.373,-0.010,0.994,-16.541,19.531,-6.775
-0.363,-0.019,0.999,-15.381,16.174,-5.798
-0.355,-0.031,1.007,-14.526,13.184,-5.432
-0.341,-0.025,1.025,-13.428,10.437,-5.737
-0.350,-0.020,1.066,-11.353,7.629,-7.263
-0.361,-0.017,1.075,-7.568,5.798,-9.521
-0.354,-0.007,1.055,-2.991,4.639,-11.047
-0.362,0.001,1.046,-0.427,1.953,-12.817
-0.366,-0.002,1.046,-0.488,0.671,-14.038
-0.360,0.001,1.070,-2.380,0.183,-13.733
-0.348,0.003,1.072,-2.686,-0.244,-12.695
-0.344,-0.001,1.060,-1.953,-1.587,-13.062
-0.351,0.005,1.054,-1.770,-2.747,-13.428
-0.350,0.020,1.047,-1.404,-3.113,-12.573
-0.355,0.029,1.033,-0.061,-2.258,-12.146
-0.367,0.023,1.030,2.197,-0.488,-11.780
-0.365,0.009,1.029,4.333,1.221,-9.766
-0.341,-0.009,1.016,5.249,1.953,-8.057
-0.336,-0.022,1.025,4.395,1.221,-7.812
-0.330,-0.034,1.038,3.113,-0.366,-8.179
-0.325,-0.036,1.047,3.052,-2.014,-8.728
-0.320,-0.041,1.020,4.883,-3.845,-9.338
-0.315,-0.031,1.000,6.592,-4.883,-10.986
-0.316,-0.021,0.985,7.019,-6.104,-12.451
-0.319,-0.021,0.969,7.263,-7.690,-13.367
-0.329,-0.020,0.949,7.263,-8.545,-14.465
-0.337,-0.000,0.959,6.775,-9.277,-15.198
-0.345,-0.015,0.940,7.202,-9.644,-14.099
-0.336,-0.012,0.924,8.179,-9.277,-12.451
-0.337,-0.026,0.902,7.812,-8.972,-11.658
-0.327,-0.025,0.906,6.165,-9.216,-10.437
-0.333,-0.039,0.899,4.883,-9.521,-10.254
-0.343,-0.029,0.922,3.174,-9.094,-10.742
-0.362,-0.024,0.942,2.258,-8.179,-10.559
-0.356,-0.018,0.945,2.930,-6.714,-8.972
-0.348,-0.023,0.928,3.662,-6.958,-8.301
-0.351,-0.019,0.922,2.197,-8.850,-8.484
-0.360,-0.012,0.908,0.854,-10.071,-8.240
-0.356,-0.010,0.883,0.549,-11.780,-7.202
-0.355,-0.019,0.864,-0.183,-13.306,-6.592
-0.350,-0.016,0.862,-2.441,-14.282,-6.287
-0.335,-0.014,0.839,-4.272,-14.465,-6.409
-0.349,-0.025,0.827,-5.920,-15.015,-7.507
-0.368,-0.023,0.831,-9.155,-14.282,-8.057
-0.381,-0.010,0.845,-12.085,-12.451,-7.385
-0.389,-0.003,0.860,-13.123,-10.742,-6.653
-0.386,-0.003,0.887,-13.184,-9.033,-5.127
-0.361,-0.015,0.903,-11.108,-6.958,-2.930
-0.335,-0.039,0.900,-7.324,-4.700,-2.258
-0.324,-0.055,0.899,-5.188,-2.563,-3.418
-0.321,-0.065,0.893,-3.967,-1.465,-5.676
-0.325,-0.054,0.868,-3.723,-1.831,-7.751
-0.338,-0.030,0.830,-4.456,-3.784,-10.010
-0.373,-0.012,0.804,-6.226,-6.104,-12.878
-0.406,0.011,0.794,-8.728,-7.690,-13.611
-0.581,0.447,3.161,19.897,-105.225,60.547
-0.529,0.473,3.467,24.841,-119.141,61.035
-0.377,0.487,3.700,42.908,-127.014,69.885
-0.156,0.475,3.803,74.768,-129.211,84.106
0.151,0.502,3.833,109.619,-129.150,96.436
0.413,0.571,3.768,142.395,-132.446,100.952
0.680,0.643,3.624,168.213,-144.104,101.013
0.971,0.727,3.414,187.256,-159.424,96.863
1.162,0.792,3.073,200.500,-170.776,84.473
1.291,0.876,2.714,201.965,-178.955,65.674
1.292,0.979,2.411,191.895,-189.453,44.189
1.232,1.114,2.131,178.101,-194.824,26.123
1.145,1.233,1.899,164.673,-194.092,18.433
1.004,1.353,1.655,156.067,-194.641,20.569
0.872,1.482,1.405,153.137,-189.148,28.870
0.779,1.534,1.270,149.170,-177.612,48.157
0.740,1.520,1.248,145.691,-169.922,77.209
0.782,1.461,1.157,151.306,-159.973,102.051
0.891,1.313,0.966,163.574,-148.010,119.446
1.083,1.186,0.699,170.715,-142.151,130.188
1.210,1.029,0.315,169.006,-143.066,123.474
1.279,0.928,-0.035,151.245,-148.071,102.600
1.281,0.995,-0.322,119.080,-157.532,79.285
1.196,0.894,-0.497,84.656,-169.312,55.603
1.227,0.741,-0.664,48.767,-174.683,33.630
1.047,0.691,-0.516,11.536,-177.429,26.001
0.990,0.551,-0.539,-0.488,-163.940,25.635
0.907,0.387,-0.660,-0.061,-139.221,25.635
0.838,0.250,-0.767,0.244,-112.732,24.170
0.763,0.137,-0.780,-5.066,-89.355,20.508
0.651,0.035,-0.735,-12.756,-74.402,14.343
0.552,-0.021,-0.645,-20.081,-68.420,7.324
0.427,-0.077,-0.507,-26.306,-69.580,0.854
0.340,-0.109,-0.290,-31.433,-73.242,-4.944
0.272,-0.138,-0.135,-28.931,-76.477,-10.986
0.196,-0.192,-0.046,-17.273,-78.003,-16.296
0.157,-0.247,-0.042,-0.122,-71.411,-16.907
0.169,-0.257,-0.060,17.456,-57.434,-15.198
0.143,-0.241,-0.151,32.410,-44.067,-15.625
0.089,-0.215,-0.247,41.077,-34.058,-19.775
-0.043,-0.173,-0.285,39.185,-29.053,-25.208
-0.151,-0.109,-0.276,27.527,-26.794,-28.015
-0.267,-0.052,-0.176,13.794,-23.804,-27.832
-0.355,-0.049,-0.069,3.479,-20.447,-26.733
-0.411,-0.082,0.051,-2.502,-14.709,-23.315
-0.436,-0.136,0.141,-3.662,-7.141,-18.982
-0.444,-0.186,0.214,-3.174,-0.610,-16.052
-0.468,-0.213,0.295,-3.174,4.211,-16.235
-0.508,-0.225,0.342,-2.136,8.362,-17.273
-0.543,-0.227,0.357,-0.427,13.123,-18.555
-0.552,-0.182,0.395,-0.488,18.677,-19.836
-0.581,-0.150,0.412,-2.441,21.484,-19.897
-0.615,-0.164,0.428,-5.859,19.165,-18.982
-0.596,-0.109,0.482,-9.338,17.334,-16.907
-0.613,-0.116,0.489,-11.414,16.052,-15.686
-0.625,-0.131,0.493,-12.207,16.907,-14.709
-0.630,-0.138,0.500,-12.329,20.874,-12.756
-0.621,-0.117,0.533,-11.841,28.015,-8.850
-0.625,-0.137,0.529,-8.667,36.194,-5.676
-0.617,-0.143,0.555,-7.446,41.992,-2.869
-0.590,-0.157,0.567,-7.874,45.532,-1.343
-0.566,-0.143,0.608,-10.498,43.762,-1.648
-0.576,-0.159,0.662,-14.282,35.889,-3.174
-0.564,-0.180,0.695,-16.724,28.687,-5.493
-0.572,-0.194,0.706,-18.005,23.987,-8.362
-0.585,-0.191,0.702,-17.761,19.409,-10.925
-0.589,-0.172,0.692,-16.724,15.625,-11.353
-0.599,-0.164,0.674,-16.174,14.099,-11.780
-0.611,-0.141,0.683,-17.151,15.503,-11.597
-0.616,-0.129,0.695,-16.907,20.142,-10.559
-0.623,-0.123,0.694,-16.113,26.489,-9.399
-0.638,-0.128,0.710,-16.968,33.386,-8.850
-0.630,-0.137,0.732,-18.250,41.504,-8.057
-0.583,-0.139,0.777,-18.555,49.072,-7.568
-0.572,-0.162,0.784,-19.409,51.208,-7.690
-0.585,-0.177,0.823,-20.813,48.401,-6.958
-0.580,-0.177,0.888,-23.437,44.250,-6.470
-0.556,-0.173,0.902,-23.376,42.419,-7.690
-0.548,-0.149,0.921,-22.583,40.833,-10.254
-0.551,-0.139,0.900,-20.142,39.063,-12.878
-0.557,-0.124,0.907,-18.799,37.231,-15.137
-0.571,-0.108,0.893,-15.686,35.950,-16.418
-0.569,-0.089,0.851,-12.451,35.339,-15.503
-0.585,-0.071,0.840,-10.681,33.386,-12.451
-0.592,-0.056,0.851,-12.207,28.625,-9.399
-0.604,-0.043,0.873,-15.503,23.071,-7.812
-0.623,-0.039,0.907,-17.761,18.677,-7.019
-0.616,-0.036,0.932,-16.968,15.564,-4.761
-0.596,-0.045,0.940,-13.733,15.564,-2.380
-0.576,-0.062,0.951,-10.925,14.771,-0.732
-0.546,-0.087,0.953,-7.263,13.733,0.671
-0.517,-0.114,0.933,-2.808,13.062,0.549
-0.499,-0.125,0.911,-0.732,11.475,-0.549
-0.499,-0.121,0.910,-0.916,9.521,-2.686
-0.500,-0.110,0.920,-2.014,6.836,-4.211
-0.510,-0.105,0.912,-2.014,3.540,-6.042
-0.517,-0.088,0.910,-1.831,1.465,-7.874
-0.526,-0.084,0.878,-0.854,0.061,-9.033
-0.537,-0.072,0.856,0.183,-0.244,-10.132
-0.541,-0.069,0.834,0.061,1.099,-10.437
-0.548,-0.072,0.818,-0.488,3.662,-9.277
-0.547,-0.070,0.809,-2.563,4.456,-7.202
-0.537,-0.078,0.802,-5.127,5.493,-5.371
-0.536,-0.080,0.815,-8.423,4.944,-3.723
-0.534,-0.073,0.842,-10.803,4.333,-3.052
-0.525,-0.068,0.872,-11.414,2.991,-2.197
-0.528,-0.075,0.881,-9.399,2.197,-2.014
-0.518,-0.071,0.873,-6.592,1.526,-1.892
-0.517,-0.080,0.869,-4.456,1.099,-2.197
-0.516,-0.093,0.876,-4.150,-0.366,-2.563
-0.507,-0.092,0.888,-4.883,-1.709,-2.869
-0.502,-0.096,0.867,-4.333,-1.526,-3.052
-0.503,-0.097,0.859,-4.089,-1.892,-3.784
-0.507,-0.094,0.852,-4.883,-1.587,-4.395
-0.519,-0.111,0.838,-5.127,0.854,-4.517
-0.495,-0.068,0.844,-5.432,3.357,-4.578
-0.509,-0.071,0.818,-4.639,2.686,-5.737
-0.500,-0.044,0.787,-4.578,2.991,-6.470
-0.506,-0.033,0.797,-7.141,2.930,-6.836
-0.581,0.015,2.406,132.263,83.374,2.625
-0.517,0.149,2.823,106.873,24.841,18.127
-0.460,0.021,2.666,95.703,-5.859,28.748
-0.340,-0.139,2.645,94.849,-18.860,29.907
-0.124,-0.200,2.611,83.862,-28.809,29.175
0.021,-0.302,2.492,81.970,-35.950,27.649
0.044,-0.176,2.429,72.815,-37.659,17.334
0.326,-0.164,2.329,53.711,-37.048,1.526
0.287,-0.056,2.312,33.142,-47.668,-13.489
0.289,-0.013,2.285,12.695,-44.922,-25.574
0.216,0.078,2.397,-8.972,-41.260,-29.785
0.389,0.199,2.533,-18.738,-33.569,-21.667
0.515,0.260,2.659,-19.592,-63.354,-8.057
0.294,0.470,2.844,-8.362,-115.723,6.165
0.504,0.555,2.888,17.700,-126.465,18.555
0.599,0.569,2.844,33.569,-145.996,22.827
0.815,0.610,2.847,40.100,-150.818,36.560
1.063,0.621,2.868,42.664,-152.771,53.711
1.321,0.653,2.825,48.096,-154.419,67.383
1.573,0.650,2.781,56.824,-157.654,79.041
1.808,0.687,2.684,68.176,-165.466,84.656
1.926,0.682,2.541,81.360,-172.913,79.102
1.965,0.699,2.453,89.172,-184.143,70.984
2.010,0.750,2.334,94.177,-195.679,62.927
1.990,0.844,2.231,99.731,-203.979,50.415
1.955,0.937,2.022,109.924,-207.336,40.833
1.956,1.021,1.695,124.023,-209.717,35.461
1.887,1.105,1.248,138.489,-207.703,30.945
1.798,1.181,0.673,149.597,-199.219,26.062
1.648,1.242,0.128,149.353,-185.974,21.362
1.445,1.289,-0.294,138.062,-170.349,19.836
1.231,1.327,-0.532,119.202,-154.663,24.963
1.051,1.279,-0.634,96.497,-141.479,35.828
0.980,1.170,-0.644,74.646,-129.822,49.927
0.923,0.984,-0.670,57.617,-120.239,63.171
0.904,0.799,-0.658,45.166,-112.305,72.021
0.943,0.599,-0.691,35.034,-106.201,73.730
0.887,0.431,-0.640,21.912,-106.384,68.787
0.807,0.302,-0.586,11.658,-102.539,61.523
0.777,0.229,-0.542,5.249,-95.398,53.711
0.716,0.204,-0.479,2.075,-88.074,43.579
0.555,0.151,-0.497,5.981,-84.839,31.250
0.459,0.111,-0.526,12.512,-82.764,23.071
0.415,0.065,-0.569,16.052,-76.904,18.860
0.315,0.033,-0.535,15.564,-70.862,14.099
0.206,-0.032,-0.517,14.526,-63.660,11.108
0.177,-0.050,-0.439,13.367,-54.810,11.536
0.125,-0.100,-0.406,11.353,-47.424,11.230
0.069,-0.139,-0.358,6.592,-44.556,9.277
0.006,-0.181,-0.274,-0.854,-46.753,7.874
-0.050,-0.204,-0.149,-9.399,-52.551,6.165
-0.080,-0.182,0.001,-16.052,-57.434,2.625
-0.123,-0.205,0.052,-14.038,-56.213,-2.747
-0.135,-0.155,0.083,-6.592,-51.758,-5.615
-0.135,-0.153,0.004,4.639,-46.997,-4.822
-0.146,-0.174,-0.056,12.146,-41.260,-5.066
-0.169,-0.169,-0.064,12.268,-31.006,-7.935
-0.237,-0.145,0.010,8.057,-23.437,-9.949
-0.260,-0.119,0.094,4.578,-17.517,-10.010
-0.272,-0.097,0.206,2.991,-16.541,-10.498
-0.299,-0.109,0.282,4.395,-15.320,-12.390
-0.330,-0.135,0.334,6.409,-10.193,-13.611
-0.328,-0.143,0.378,6.531,-5.981,-13.733
-0.337,-0.140,0.426,3.174,-4.639,-15.076
-0.395,-0.146,0.484,-2.502,-5.737,-17.578
-0.434,-0.134,0.537,-9.216,-7.996,-18.616
-0.458,-0.113,0.583,-16.235,-10.376,-18.616
-0.470,-0.073,0.656,-23.437,-11.658,-17.761
-0.475,-0.039,0.740,-27.466,-10.254,-17.090
-0.481,-0.019,0.817,-25.024,-6.653,-15.991
-0.479,-0.007,0.873,-15.625,-1.099,-14.404
-0.470,-0.025,0.857,-1.953,8.301,-12.085
-0.451,-0.047,0.815,8.484,18.982,-9.949
-0.445,-0.069,0.806,12.024,26.794,-8.118
-0.457,-0.085,0.838,9.033,29.114,-6.653
-0.451,-0.099,0.879,3.113,28.870,-5.249
-0.452,-0.096,0.962,-3.784,25.940,-4.395
-0.454,-0.106,1.027,-8.179,23.193,-4.150
-0.454,-0.107,1.088,-9.888,18.311,-4.700
-0.450,-0.092,1.138,-9.766,11.963,-5.493
-0.451,-0.085,1.105,-5.676,6.409,-7.263
-0.458,-0.074,1.045,-1.038,1.648,-9.338
-0.469,-0.070,0.979,1.160,-2.136,-10.498
-0.480,-0.059,0.931,1.221,-3.357,-10.376
-0.489,-0.048,0.906,-1.648,-3.723,-8.484
-0.486,-0.021,0.945,-5.676,-2.686,-6.042
-0.483,-0.033,0.990,-7.996,-0.549,-4.028
-0.468,-0.049,1.022,-8.179,0.854,-2.136
-0.453,-0.076,1.033,-6.592,1.099,-1.221
-0.436,-0.097,1.024,-4.578,0.427,-2.014
-0.426,-0.103,1.014,-3.662,-1.282,-4.028
-0.426,-0.102,0.995,-2.808,-2.075,-6.042
-0.438,-0.104,0.964,-1.831,-2.747,-7.874
-0.442,-0.084,0.935,-1.526,-3.479,-8.850
-0.451,-0.067,0.923,-1.953,-3.845,-8.362
-0.453,-0.050,0.922,-2.441,-4.456,-7.080
-0.435,-0.040,0.905,-1.648,-4.395,-6.104
-0.432,-0.045,0.883,-1.282,-4.395,-5.371
-0.438,-0.056,0.880,-2.014,-4.517,-4.517
-0.431,-0.062,0.881,-2.197,-3.906,-3.174
-0.418,-0.069,0.876,-1.526,-3.235,-2.197
-0.412,-0.071,0.869,-0.671,-2.991,-2.319
-0.406,-0.075,0.853,0.122,-2.991,-2.991
-0.410,-0.077,0.837,-0.122,-3.113,-2.869
-0.409,-0.078,0.818,-1.099,-2.747,-3.479
-0.412,-0.069,0.809,-2.502,-2.869,-4.333
-0.420,-0.062,0.801,-4.028,-3.174,-5.554
-0.436,-0.054,0.801,-5.920,-3.601,-6.470
-0.458,-0.037,0.806,-8.606,-3.967,-6.592
-0.478,-0.022,0.820,-10.559,-3.723,-5.310
-0.467,-0.013,0.832,-11.536,-3.418,-2.869
-0.458,-0.009,0.854,-11.353,-2.869,-1.160
-0.453,-0.014,0.853,-9.155,-1.709,-0.427
-0.447,-0.022,0.831,-5.981,0.000,-0.061
-0.453,-0.022,0.814,-4.028,0.366,0.061
-0.451,-0.022,0.794,-3.235,1.465,0.549
-0.449,-0.018,0.798,-5.066,2.502,1.343
-0.452,-0.020,0.814,-7.690,3.235,2.563
-0.453,-0.021,0.847,-10.315,3.662,3.479
-0.777,0.424,1.859,106.750,-10.803,49.255
-0.765,0.389,1.865,103.577,-23.987,52.551
-0.742,0.402,1.931,86.975,-36.560,52.795
-0.684,0.396,1.933,74.707,-42.908,48.706
-0.672,0.390,1.984,57.312,-49.072,40.344
-0.645,0.427,2.073,35.522,-54.138,30.518
-0.633,0.478,2.223,17.273,-58.899,19.531
-0.644,0.531,2.420,6.104,-72.571,10.864
-0.597,0.543,2.493,1.648,-91.492,5.981
-0.760,0.667,2.661,-2.197,-114.441,4.517
-0.750,0.686,2.823,2.380,-118.530,10.864
-0.721,0.724,2.960,4.578,-127.136,21.484
-0.617,0.730,3.081,12.695,-132.385,39.124
-0.417,0.713,3.133,27.893,-132.996,63.293
-0.152,0.675,3.112,47.424,-127.991,89.050
0.139,0.639,3.049,67.383,-117.188,111.084
0.442,0.587,2.893,86.304,-102.722,127.258
0.719,0.542,2.760,99.121,-88.318,136.841
0.982,0.553,2.739,103.943,-79.529,137.451
1.145,0.584,2.740,108.948,-85.510,129.150
1.211,0.605,2.678,121.094,-96.191,112.732
1.289,0.636,2.501,137.878,-102.417,97.168
1.349,0.652,2.248,155.762,-100.342,88.257
1.440,0.682,1.895,169.739,-88.562,85.510
1.550,0.690,1.473,180.786,-67.139,85.022
1.611,0.764,1.113,180.542,-43.335,81.116
1.606,0.808,0.748,171.143,-20.752,69.214
1.558,0.863,0.494,151.550,-4.822,49.744
1.446,0.945,0.438,123.169,-0.549,30.090
1.288,0.966,0.346,94.360,-7.874,16.479
1.126,0.995,0.270,73.547,-21.484,11.230
1.024,1.008,0.227,62.439,-35.034,13.794
0.935,0.961,0.126,64.087,-48.218,24.475
0.873,0.894,-0.002,74.768,-59.387,38.391
0.873,0.787,-0.245,90.759,-62.927,49.683
0.852,0.654,-0.480,94.116,-65.918,54.749
0.741,0.527,-0.596,78.613,-71.106,54.688
0.672,0.447,-0.646,53.711,-72.388,50.781
0.564,0.414,-0.580,23.010,-75.439,44.983
0.439,0.393,-0.406,-4.333,-82.092,37.781
0.336,0.396,-0.174,-19.104,-86.121,32.349
0.318,0.397,0.009,-16.052,-84.106,30.518
0.296,0.295,0.045,5.859,-80.872,30.029
0.281,0.123,-0.088,31.555,-78.979,27.832
0.300,0.025,-0.192,40.710,-78.613,23.254
0.281,-0.052,-0.210,33.813,-80.750,15.808
0.198,-0.099,-0.199,21.484,-84.412,8.057
0.130,-0.089,-0.151,10.864,-86.609,1.831
0.059,-0.055,-0.105,4.150,-87.891,-2.930
-0.019,-0.014,-0.058,1.587,-90.271,-5.615
-0.101,0.008,-0.029,3.235,-91.675,-7.446
-0.170,0.010,-0.025,6.348,-87.463,-8.789
-0.204,0.010,-0.005,8.728,-79.102,-6.897
-0.205,0.005,0.012,11.597,-69.031,-2.319
-0.219,-0.042,0.014,14.282,-57.373,2.563
-0.192,-0.091,0.025,13.916,-46.875,7.446
-0.176,-0.136,0.069,8.972,-42.053,11.780
-0.172,-0.180,0.104,3.052,-39.124,11.475
-0.182,-0.197,0.145,-2.991,-33.813,6.836
-0.235,-0.198,0.201,-9.583,-29.236,0.427
-0.286,-0.171,0.281,-15.930,-26.855,-4.150
-0.335,-0.142,0.367,-20.935,-25.452,-6.836
-0.380,-0.122,0.443,-23.437,-25.513,-7.874
-0.421,-0.117,0.499,-23.071,-24.963,-7.629
-0.448,-0.114,0.545,-20.996,-23.560,-5.249
-0.457,-0.134,0.571,-17.090,-20.447,-0.488
-0.447,-0.148,0.581,-13.428,-15.503,3.967
-0.430,-0.154,0.611,-12.817,-9.705,7.141
-0.417,-0.150,0.662,-13.550,-4.456,9.338
-0.390,-0.139,0.715,-13.367,-0.977,10.925
-0.379,-0.156,0.740,-11.658,1.953,10.986
-0.378,-0.173,0.750,-9.399,3.845,9.949
-0.380,-0.179,0.762,-8.057,3.967,8.179
-0.389,-0.176,0.785,-7.019,4.517,5.615
-0.394,-0.177,0.812,-6.836,6.897,3.418
-0.398,-0.175,0.849,-7.568,10.132,2.319
-0.411,-0.165,0.901,-8.179,12.085,1.648
-0.415,-0.158,0.929,-6.348,13.306,1.465
-0.419,-0.156,0.954,-3.174,14.160,1.526
-0.411,-0.154,0.938,0.854,15.015,1.953
-0.397,-0.154,0.926,3.113,15.076,1.526
-0.399,-0.159,0.920,3.052,13.550,0.000
-0.399,-0.154,0.914,1.587,10.803,-2.441
-0.411,-0.156,0.911,-1.038,7.263,-5.066
-0.430,-0.157,0.920,-4.333,3.967,-7.202
-0.437,-0.151,0.936,-7.141,1.587,-8.118
-0.439,-0.140,0.951,-8.423,0.000,-8.240
-0.439,-0.140,0.954,-8.301,-0.244,-7.935
-0.437,-0.137,0.964,-7.812,-0.122,-7.385
-0.435,-0.136,0.965,-6.897,0.427,-6.531
-0.427,-0.131,0.945,-5.127,0.732,-5.798
-0.431,-0.123,0.918,-4.150,0.183,-5.859
-0.434,-0.112,0.904,-3.601,-0.183,-6.897
-0.447,-0.100,0.904,-3.906,-0.305,-7.141
-0.454,-0.093,0.899,-4.333,-0.061,-6.775
-0.448,-0.090,0.909,-5.005,0.366,-6.104
-0.447,-0.094,0.918,-5.676,0.732,-4.883
-0.439,-0.103,0.930,-5.554,1.038,-3.418
-0.428,-0.112,0.944,-5.188,1.526,-2.502
-0.424,-0.128,0.941,-3.845,3.052,-1.831
-0.413,-0.135,0.941,-2.563,4.211,-1.465
-0.400,-0.139,0.941,-2.319,4.517,-1.709
-0.395,-0.138,0.945,-2.991,3.967,-2.930
-0.396,-0.126,0.951,-3.662,2.563,-5.066
-0.403,-0.121,0.951,-3.662,0.916,-7.141
-0.407,-0.114,0.933,-2.991,-0.488,-7.996
-0.405,-0.116,0.911,-2.869,-1.587,-8.301
-0.420,-0.165,0.840,-4.089,-2.319,-8.667
-0.401,-0.103,0.880,-8.789,-3.906,-9.155
-0.420,-0.110,0.885,-11.230,-5.371,-10.620
-0.424,-0.097,0.903,-11.536,-5.737,-10.376
-0.406,-0.091,0.902,-10.742,-4.761,-9.644
-0.426,-0.110,0.880,-7.874,-3.723,-9.521
-0.414,-0.070,0.902,-5.554,-3.235,-8.728
-0.411,-0.085,0.863,-2.441,-2.319,-8.179
-0.430,-0.107,0.836,-1.709,-2.869,-7.568
-0.396,-0.066,0.855,-2.991,-2.502,-6.714
-0.390,-0.092,0.794,-2.869,-1.526,-6.348
-0.396,-0.068,0.830,-6.714,-3.662,-6.104
-0.833,0.031,2.927,81.909,24.719,60.913
-0.866,-0.087,3.154,102.295,24.780,76.172
-0.743,-0.298,3.266,114.685,19.043,83.557
-0.782,-0.346,3.698,126.221,7.996,85.388
-0.692,-0.376,3.922,133.179,-17.822,82.642
-0.349,-0.401,4.000,127.747,-55.115,66.895
-0.356,-0.335,4.000,123.901,-105.042,47.424
-0.032,-0.275,4.000,122.620,-113.159,19.165
0.104,-0.211,4.000,121.765,-135.437,-5.371
0.606,-0.196,3.909,130.310,-123.718,-22.705
0.968,-0.081,3.812,128.052,-138.794,-26.001
1.108,0.052,3.677,126.465,-194.580,-17.639
1.357,0.130,3.441,137.024,-212.830,-4.456
1.585,0.203,3.147,146.484,-222.839,5.310
1.818,0.287,2.776,152.649,-214.966,14.038
2.010,0.381,2.431,147.339,-207.947,16.113
2.138,0.473,2.067,134.338,-208.923,14.832
2.142,0.576,1.775,116.211,-212.646,9.399
2.117,0.693,1.539,96.802,-211.731,3.662
2.129,0.785,1.318,80.139,-205.383,3.479
2.041,0.816,1.140,64.697,-195.251,7.080
1.965,0.843,0.992,53.528,-181.335,11.047
1.948,0.899,0.779,47.852,-165.100,15.503
1.875,0.942,0.526,46.509,-150.818,17.456
1.767,0.971,0.286,44.983,-138.062,16.968
1.655,0.977,0.042,43.030,-125.488,17.151
1.522,0.953,-0.188,38.879,-116.272,17.822
1.371,0.911,-0.316,27.466,-110.901,18.372
1.269,0.875,-0.374,11.230,-105.774,19.653
1.173,0.817,-0.418,-2.930,-102.234,22.766
1.041,0.733,-0.415,-10.010,-101.685,25.391
0.921,0.627,-0.372,-11.719,-98.877,28.381
0.843,0.557,-0.328,-8.545,-87.158,33.508
0.775,0.438,-0.360,-0.427,-72.571,36.438
0.698,0.361,-0.341,6.104,-65.735,36.804
0.626,0.290,-0.293,9.766,-63.660,35.278
0.550,0.198,-0.297,12.451,-62.988,32.837
0.491,0.133,-0.245,11.108,-64.026,27.527
0.411,0.097,-0.177,6.775,-66.711,18.494
0.330,0.080,-0.111,3.601,-71.411,7.019
0.279,0.061,-0.032,0.854,-74.646,-3.845
0.213,0.049,0.064,2.319,-75.745,-9.460
0.181,0.009,0.113,10.559,-75.317,-11.963
0.168,-0.010,0.100,20.447,-72.571,-12.024
0.173,-0.007,0.002,30.945,-69.519,-13.184
0.107,-0.033,-0.124,38.208,-67.810,-18.188
0.042,-0.020,-0.197,35.461,-67.688,-22.217
-0.049,-0.003,-0.258,27.222,-64.270,-23.865
-0.086,0.026,-0.246,15.381,-59.631,-23.499
-0.203,0.055,-0.212,0.793,-61.707,-22.705
-0.187,0.089,-0.106,-10.071,-57.251,-15.259
-0.226,0.059,-0.036,-14.343,-51.636,-8.728
-0.241,-0.009,0.026,-17.883,-48.218,-3.235
-0.260,-0.041,0.120,-20.935,-44.312,2.808
-0.240,-0.080,0.167,-20.630,-40.039,7.568
-0.243,-0.103,0.189,-20.752,-39.185,7.141
-0.247,-0.112,0.247,-24.719,-41.199,3.296
-0.253,-0.103,0.312,-29.175,-38.330,-1.343
-0.313,-0.131,0.377,-34.241,-34.790,-5.310
-0.338,-0.031,0.564,-38.269,-30.945,-6.348
-0.359,-0.028,0.617,-33.020,-22.522,-7.141
-0.357,0.013,0.688,-22.583,-13.489,-6.714
-0.393,-0.033,0.614,-9.277,-4.517,-6.165
-0.383,-0.069,0.554,-3.052,2.258,-5.188
-0.394,-0.077,0.560,-6.287,4.456,-3.357
-0.409,-0.079,0.622,-13.550,5.066,-1.648
-0.423,-0.080,0.737,-21.179,6.897,1.038
-0.409,-0.076,0.857,-25.635,9.399,4.822
-0.388,-0.077,0.953,-23.987,12.024,8.789
-0.374,-0.113,0.973,-17.578,13.428,10.437
-0.353,-0.120,0.995,-12.817,12.817,10.681
-0.337,-0.129,0.982,-9.399,10.559,9.094
-0.349,-0.138,0.962,-7.385,7.385,5.493
-0.348,-0.126,0.951,-7.874,5.371,1.160
-0.388,-0.103,0.947,-9.094,6.897,-1.160
-0.391,-0.103,0.949,-9.460,9.216,-1.465
-0.405,-0.067,1.012,-10.925,11.169,-1.404
-0.419,-0.051,1.033,-9.460,15.381,-0.916
-0.416,-0.040,1.054,-4.639,20.325,-0.244
-0.409,-0.034,1.037,1.526,24.170,1.282
-0.398,-0.041,1.000,7.385,26.489,1.892
-0.372,-0.061,0.957,9.583,22.461,1.770
-0.380,-0.066,0.949,7.202,11.597,0.977
-0.367,-0.095,0.947,5.615,9.155,1.282
-0.372,-0.106,0.970,1.953,7.812,-0.122
-0.355,-0.102,1.016,-1.831,7.568,-1.160
-0.357,-0.129,1.015,-2.380,7.690,-2.930
-0.358,-0.132,1.047,-3.174,5.798,-4.089
-0.358,-0.130,1.047,-3.357,0.549,-5.737
-0.370,-0.120,1.057,-1.892,-2.441,-7.507
-0.373,-0.100,1.046,0.549,-3.418,-9.277
-0.375,-0.083,1.016,3.784,-3.845,-10.681
-0.376,-0.065,0.983,6.287,-4.639,-11.108
-0.384,-0.077,0.943,7.751,-5.310,-11.230
-0.407,-0.064,0.919,7.385,-5.615,-10.132
-0.392,-0.041,0.931,5.005,-5.737,-8.118
-0.414,-0.075,0.904,3.357,-5.249,-6.775
-0.401,-0.065,0.927,-0.061,-4.395,-4.395
-0.396,-0.079,0.948,-2.502,-3.357,-1.648
-0.382,-0.092,0.978,-2.930,-2.747,0.488
-0.360,-0.109,0.986,-1.282,-1.709,1.587
-0.336,-0.128,0.972,1.099,-1.099,1.282
-0.322,-0.138,0.948,2.502,-1.404,-1.038
-0.328,-0.136,0.927,1.770,-3.357,-4.944
-0.347,-0.115,0.929,0.000,-6.165,-7.996
-0.368,-0.090,0.932,-0.854,-7.629,-10.254
-0.377,-0.079,0.918,-0.488,-7.996,-11.169
-0.386,-0.066,0.899,-0.122,-8.484,-10.864
-0.392,-0.059,0.876,-0.122,-9.338,-10.010
-0.399,-0.052,0.854,-0.488,-10.864,-8.545
-0.400,-0.049,0.833,-0.977,-12.268,-6.897
-0.402,-0.059,0.818,-1.282,-12.329,-4.883
-0.392,-0.061,0.819,-1.343,-10.681,-2.319
-0.375,-0.068,0.826,-0.793,-7.874,-0.244
-0.358,-0.072,0.818,0.244,-5.249,0.671
-0.342,-0.069,0.800,1.465,-3.967,-0.427
-0.334,-0.066,0.781,2.319,-3.845,-2.686
-0.340,-0.063,0.760,2.136,-4.639,-5.249
-0.340,-0.047,0.722,1.343,-4.822,-6.775
-0.306,0.933,2.761,-58.228,-31.738,-46.326
-0.184,1.039,2.837,-52.673,-44.617,-35.645
-0.083,1.131,2.941,-45.410,-63.782,-22.644
0.024,1.158,2.991,-32.959,-76.599,-7.080
0.202,1.223,3.030,-18.250,-82.520,10.376
0.355,1.257,3.029,-2.625,-87.402,28.687
0.484,1.272,3.008,12.390,-93.323,45.959
0.655,1.343,3.023,24.841,-98.572,60.608
0.808,1.350,3.006,37.659,-99.976,72.510
0.945,1.375,2.990,53.955,-98.816,85.144
1.116,1.383,2.953,74.951,-93.689,97.473
1.279,1.416,2.863,105.103,-85.571,109.619
1.522,1.421,2.616,143.127,-79.041,116.455
1.669,1.447,2.375,179.077,-80.811,115.967
1.783,1.415,1.995,208.740,-89.722,110.840
1.819,1.354,1.558,227.478,-106.201,100.952
1.807,1.308,1.182,228.455,-123.901,89.417
1.803,1.294,0.857,216.980,-134.827,81.238
1.740,1.257,0.647,198.425,-138.977,74.402
1.638,1.206,0.548,179.810,-136.475,68.848
1.603,1.172,0.472,169.739,-128.784,66.040
1.535,1.090,0.313,167.419,-119.263,62.988
1.518,0.999,0.130,167.908,-110.718,55.969
1.514,0.912,-0.092,166.138,-106.384,45.715
1.434,0.784,-0.314,155.762,-107.483,31.433
1.362,0.682,-0.516,138.855,-111.511,17.761
1.276,0.609,-0.692,116.577,-123.779,7.385
1.125,0.509,-0.797,89.783,-135.132,-1.282
0.932,0.497,-0.829,61.768,-137.878,-5.005
0.758,0.447,-0.886,43.945,-135.010,-2.197
0.607,0.395,-0.874,32.837,-131.348,4.944
0.487,0.358,-0.796,21.179,-125.916,13.855
0.395,0.315,-0.730,14.404,-119.751,22.217
0.347,0.245,-0.677,15.015,-117.737,30.029
0.328,0.147,-0.653,18.860,-116.089,36.560
0.293,-0.012,-0.708,21.912,-110.718,41.199
0.209,-0.128,-0.670,19.653,-104.248,42.786
0.172,-0.214,-0.605,13.672,-95.825,42.236
0.120,-0.240,-0.546,8.240,-85.999,40.039
0.104,-0.212,-0.473,4.944,-79.651,33.997
0.041,-0.164,-0.417,4.883,-75.623,25.879
-0.052,-0.105,-0.387,10.986,-74.341,18.311
-0.093,-0.085,-0.428,22.339,-64.880,12.451
-0.196,-0.066,-0.472,29.724,-62.744,10.498
-0.291,-0.027,-0.457,34.546,-60.059,11.169
-0.285,-0.027,-0.479,39.246,-45.776,15.198
-0.300,-0.032,-0.446,37.231,-33.569,23.010
-0.304,-0.068,-0.435,31.433,-26.978,30.884
-0.284,-0.092,-0.416,22.034,-23.804,33.569
-0.290,-0.141,-0.364,7.690,-24.109,30.396
-0.322,-0.144,-0.201,-8.545,-23.804,24.109
-0.336,-0.151,-0.026,-16.785,-18.005,18.982
-0.344,-0.172,0.100,-13.489,-7.629,16.052
-0.339,-0.213,0.184,-7.812,2.869,13.916
-0.348,-0.237,0.283,-5.676,11.536,12.329
-0.367,-0.253,0.369,-6.592,16.113,11.414
-0.380,-0.213,0.494,-9.766,17.273,11.230
-0.407,-0.171,0.593,-11.719,17.029,11.108
-0.425,-0.152,0.655,-10.620,18.127,11.108
-0.438,-0.123,0.714,-9.033,22.156,11.658
-0.453,-0.138,0.730,-7.812,25.879,12.634
-0.422,-0.138,0.782,-9.216,27.283,14.771
-0.385,-0.142,0.824,-12.512,25.452,16.296
-0.379,-0.155,0.890,-16.357,21.790,15.808
-0.360,-0.182,0.938,-16.846,18.921,13.367
-0.354,-0.209,0.957,-12.878,19.836,9.644
-0.336,-0.194,0.993,-9.644,24.292,4.211
-0.340,-0.191,1.025,-7.629,26.733,-1.831
-0.351,-0.161,1.068,-6.226,27.771,-7.629
-0.392,-0.155,1.068,-6.042,25.452,-12.756
-0.426,-0.118,1.097,-7.874,20.935,-16.357
-0.464,-0.093,1.116,-9.644,17.212,-17.883
-0.485,-0.049,1.120,-8.484,13.672,-15.991
-0.497,-0.034,1.116,-5.920,11.597,-12.512
-0.499,-0.038,1.081,-5.371,7.935,-8.179
-0.500,-0.049,1.081,-6.287,5.310,-4.211
-0.466,-0.063,1.073,-8.179,2.563,-0.732
-0.451,-0.093,1.051,-9.705,-0.061,1.709
-0.431,-0.071,1.097,-11.780,-0.916,1.526
-0.445,-0.106,1.078,-11.475,0.183,-0.732
-0.448,-0.083,1.107,-9.216,2.930,-2.380
-0.442,-0.086,1.083,-5.432,5.981,-3.662
-0.451,-0.090,1.064,-1.953,8.057,-4.944
-0.461,-0.099,1.042,-0.305,8.484,-5.371
-0.474,-0.104,1.039,-1.526,7.385,-4.456
-0.451,-0.086,1.055,-3.235,5.859,-2.319
-0.455,-0.107,1.046,-4.272,3.296,-1.038
-0.447,-0.102,1.057,-4.395,0.793,-0.854
-0.442,-0.103,1.037,-3.052,-0.977,-0.671
-0.422,-0.094,1.006,-0.305,-1.404,-0.061
-0.421,-0.103,0.966,1.892,-0.793,-1.099
-0.424,-0.097,0.947,2.136,0.000,-2.930
-0.420,-0.076,0.950,0.977,0.427,-3.601
-0.424,-0.089,0.939,1.343,0.000,-3.845
-0.413,-0.085,0.931,1.831,-0.854,-4.150
-0.420,-0.114,0.900,1.831,-1.282,-4.761
-0.417,-0.104,0.898,-0.244,-1.831,-4.822
-0.432,-0.115,0.890,-2.258,-3.052,-4.578
-0.424,-0.100,0.899,-5.249,-4.150,-2.991
-0.421,-0.102,0.901,-8.423,-5.432,-1.099
-0.417,-0.093,0.908,-10.864,-8.118,-0.183
-0.415,-0.080,0.911,-11.902,-9.338,0.183
-0.422,-0.076,0.900,-10.498,-9.399,0.183
-0.420,-0.079,0.865,-7.141,-7.568,0.549
-0.420,-0.079,0.847,-4.395,-4.333,0.427
-0.411,-0.078,0.838,-3.418,-2.808,0.427
-0.413,-0.094,0.840,-3.174,-0.916,-0.244
-0.399,-0.086,0.854,-4.089,-0.183,0.305
-0.404,-0.103,0.843,-3.601,0.366,0.549
-0.386,-0.096,0.850,-3.052,0.488,1.099
-0.385,-0.116,0.824,-2.502,0.854,0.671
-0.373,-0.111,0.814,-3.845,0.000,0.305
-0.381,-0.100,0.817,-6.226,-1.099,-0.977
-0.392,-0.104,0.804,-8.057,-2.014,-1.404
-0.389,-0.093,0.818,-9.827,-2.319,-0.732
-0.388,-0.094,0.812,-11.047,-2.991,0.000
-0.390,-0.094,0.810,-11.780,-3.540,-0.366
-0.389,-0.093,0.820,-12.695,-3.967,-1.038
-0.384,-0.098,0.833,-12.512,-3.540,-1.038
0.411,0.815,2.391,121.460,-64.575,78.918
0.499,0.784,2.371,124.023,-67.688,76.233
0.612,0.764,2.340,124.207,-71.411,75.317
0.685,0.741,2.339,126.038,-74.036,71.777
0.723,0.742,2.339,136.292,-82.031,68.665
0.786,0.754,2.239,151.611,-100.220,67.627
0.848,0.783,2.092,159.912,-121.338,59.570
0.848,0.806,1.975,159.119,-138.855,47.058
0.864,0.854,1.802,157.715,-152.100,38.513
0.860,0.892,1.611,156.616,-162.292,31.372
0.838,0.932,1.409,155.701,-163.635,24.597
0.815,0.979,1.108,156.372,-155.640,20.081
0.743,1.021,0.857,151.733,-143.677,15.564
0.677,1.050,0.632,144.348,-123.840,13.306
0.649,1.046,0.493,136.292,-97.473,15.625
0.626,0.996,0.368,131.470,-68.176,19.165
0.615,0.916,0.274,129.211,-39.490,16.174
0.641,0.825,0.213,125.427,-14.587,9.399
0.650,0.705,0.143,118.896,3.296,2.563
0.647,0.599,0.111,106.201,9.644,-2.380
0.676,0.515,0.091,88.867,6.653,-7.996
0.628,0.437,0.073,69.275,-3.906,-15.747
0.578,0.387,0.058,52.185,-17.395,-22.827
0.529,0.375,0.004,38.940,-32.898,-24.719
0.448,0.368,-0.070,26.550,-48.218,-20.996
0.394,0.355,-0.104,13.733,-60.791,-13.672
0.389,0.338,-0.141,2.563,-68.604,-6.287
0.351,0.248,-0.233,-1.404,-72.876,-0.183
0.278,0.164,-0.299,-4.761,-76.782,5.005
0.251,0.093,-0.320,-11.414,-76.233,7.874
0.198,0.026,-0.305,-18.433,-72.571,7.751
0.124,-0.028,-0.277,-22.339,-70.190,6.653
0.094,-0.050,-0.225,-24.719,-66.772,3.967
0.034,-0.051,-0.157,-27.344,-65.063,0.427
-0.045,-0.038,-0.039,-27.771,-65.796,-4.028
-0.089,-0.040,0.043,-22.400,-64.514,-7.324
-0.108,-0.031,0.106,-12.817,-62.744,-7.629
-0.106,-0.091,0.076,-1.038,-58.105,-6.470
-0.149,-0.127,0.049,4.944,-59.509,-5.066
-0.159,-0.145,0.042,5.066,-59.204,-4.211
-0.191,-0.157,0.068,1.892,-55.542,-3.174
-0.222,-0.138,0.143,-2.380,-52.185,-1.709
-0.255,-0.153,0.169,-2.075,-46.021,-0.549
-0.281,-0.154,0.210,-0.549,-39.551,0.488
-0.288,-0.159,0.246,-0.366,-34.424,1.099
-0.311,-0.151,0.314,-1.526,-31.738,0.732
-0.329,-0.156,0.366,-1.160,-29.236,-0.122
-0.344,-0.171,0.405,0.671,-26.306,0.122
-0.348,-0.169,0.426,3.601,-23.010,1.038
-0.347,-0.165,0.433,5.676,-19.897,-0.793
-0.374,-0.155,0.453,4.944,-17.395,-3.967
-0.397,-0.146,0.477,2.625,-13.733,-5.615
-0.415,-0.141,0.503,0.122,-9.583,-6.653
-0.446,-0.131,0.558,-3.601,-7.263,-7.080
-0.468,-0.110,0.628,-6.104,-4.639,-6.714
-0.480,-0.107,0.670,-5.249,-2.136,-5.798
-0.475,-0.099,0.679,-2.563,0.549,-4.150
-0.473,-0.099,0.655,-0.305,2.380,-3.113
-0.480,-0.098,0.640,0.061,4.272,-2.930
-0.486,-0.100,0.637,-1.648,4.333,-2.380
-0.495,-0.117,0.646,-4.456,1.953,-1.892
-0.493,-0.086,0.697,-6.287,5.798,-1.770
-0.491,-0.083,0.735,-8.179,7.935,-2.380
-0.500,-0.087,0.780,-10.254,7.812,-3.296
-0.505,-0.080,0.814,-11.963,7.446,-3.296
-0.497,-0.101,0.815,-11.475,7.019,-2.563
-0.486,-0.098,0.823,-10.803,5.676,-2.136
-0.475,-0.109,0.834,-10.986,4.761,-2.869
-0.478,-0.114,0.822,-11.230,2.563,-3.723
-0.468,-0.121,0.821,-11.353,0.183,-4.456
-0.467,-0.116,0.819,-12.695,-1.526,-5.249
-0.477,-0.108,0.829,-14.893,-2.441,-6.287
-0.488,-0.095,0.856,-17.151,-2.563,-6.714
-0.492,-0.079,0.877,-17.029,-2.441,-6.836
-0.500,-0.065,0.891,-14.709,-1.831,-6.287
-0.498,-0.052,0.874,-11.169,-0.671,-5.798
-0.496,-0.054,0.847,-7.202,0.916,-5.615
-0.499,-0.058,0.815,-4.883,2.441,-4.944
-0.495,-0.063,0.793,-4.639,4.333,-3.052
-0.490,-0.062,0.786,-6.531,5.676,-1.831
-0.493,-0.053,0.802,-9.094,7.080,-2.014
-0.495,-0.041,0.840,-11.475,8.179,-2.258
-0.504,-0.030,0.880,-12.695,8.850,-1.953
-0.510,-0.031,0.911,-12.268,9.033,-1.404
-0.504,-0.036,0.928,-10.986,10.010,-0.732
-0.499,-0.044,0.937,-9.338,10.498,-0.244
-0.489,-0.054,0.944,-7.935,10.498,-0.183
-0.475,-0.053,0.951,-7.141,10.437,-0.549
-0.468,-0.058,0.954,-6.775,9.644,-1.648
-0.469,-0.058,0.954,-5.981,8.240,-3.357
-0.472,-0.053,0.947,-5.676,6.409,-4.395
-0.477,-0.044,0.935,-5.188,5.005,-5.859
-0.485,-0.031,0.929,-5.371,3.540,-7.019
-0.493,-0.013,0.913,-5.554,2.197,-8.057
-0.506,-0.002,0.893,-6.042,1.343,-9.216
-0.525,0.011,0.888,-7.385,0.549,-9.460
-0.532,0.028,0.882,-8.484,0.977,-7.874
-0.532,0.040,0.887,-9.521,2.625,-5.615
-0.532,0.026,0.894,-9.277,4.456,-2.930
-0.512,0.020,0.898,-8.301,5.615,-0.061
-0.501,0.007,0.900,-7.568,6.287,2.075
-0.488,-0.008,0.910,-7.446,6.592,3.479
-0.473,-0.024,0.925,-7.446,7.385,4.883
-0.454,-0.036,0.934,-6.836,7.751,5.554
-0.441,-0.046,0.936,-6.104,7.385,4.822
-0.443,-0.055,0.942,-6.348,5.981,2.869
-0.447,-0.054,0.942,-6.653,4.211,0.671
-0.456,-0.052,0.935,-6.714,1.648,-1.587
-0.462,-0.044,0.922,-7.019,-1.343,-2.930
-0.459,-0.036,0.915,-7.141,-2.869,-3.723
-0.456,-0.037,0.910,-7.141,-3.479,-4.150
-0.471,-0.030,0.914,-7.202,-4.639,-4.028
-0.466,-0.019,0.906,-5.859,-4.150,-3.845
-0.470,-0.022,0.880,-3.662,-3.784,-3.479
-0.475,-0.013,0.872,-2.991,-2.686,-3.052
-0.478,-0.011,0.874,-3.113,-2.075,-2.686
-0.481,-0.009,0.879,-2.869,-1.709,-2.075
-0.477,-0.005,0.887,-2.625,-1.099,-1.709
-0.471,-0.009,0.892,-2.258,-0.610,-1.343
0.435,0.781,3.003,34.729,-28.687,63.538
0.623,0.844,3.098,44.617,-55.420,66.956
0.761,0.856,3.184,51.758,-77.209,67.688
0.897,0.831,3.245,60.791,-97.473,70.313
1.088,0.792,3.296,75.928,-113.281,75.684
1.276,0.719,3.216,102.173,-123.962,81.177
1.509,0.670,3.041,133.362,-133.057,82.336
1.684,0.641,2.793,161.438,-141.174,72.449
1.773,0.628,2.487,184.753,-148.437,56.213
1.832,0.645,2.121,198.914,-156.189,40.222
1.850,0.758,1.808,197.510,-167.786,21.362
1.781,0.856,1.519,187.683,-182.129,1.282
1.708,0.955,1.204,178.955,-193.665,-11.353
1.571,1.038,0.862,172.546,-203.430,-17.090
1.434,1.135,0.572,169.373,-205.505,-20.447
1.321,1.217,0.280,170.715,-194.275,-20.691
1.179,1.245,-0.023,175.537,-173.950,-16.907
1.053,1.202,-0.240,176.941,-148.560,-11.047
0.984,1.133,-0.339,172.119,-123.169,-1.648
0.968,1.010,-0.432,163.330,-104.614,8.972
0.942,0.836,-0.501,148.682,-95.032,16.052
0.936,0.678,-0.547,127.380,-95.398,19.958
0.915,0.530,-0.635,101.379,-106.323,18.616
0.814,0.422,-0.678,70.190,-123.779,11.353
0.701,0.365,-0.661,38.574,-132.019,5.981
0.576,0.332,-0.610,12.756,-132.141,3.601
0.437,0.312,-0.542,-2.075,-128.113,0.854
0.333,0.302,-0.409,-6.653,-119.751,-1.099
0.282,0.270,-0.312,0.122,-106.812,1.160
0.244,0.171,-0.314,18.066,-92.285,5.249
0.240,0.076,-0.348,34.729,-79.041,7.446
0.226,-0.031,-0.342,39.673,-73.303,7.568
0.191,-0.136,-0.324,33.997,-77.637,6.165
0.149,-0.212,-0.253,20.508,-85.571,2.502
0.073,-0.240,-0.139,3.418,-93.933,-2.930
0.044,-0.246,-0.032,-6.836,-99.121,-8.911
-0.030,-0.227,0.038,-6.226,-99.121,-15.808
-0.086,-0.184,0.045,1.404,-93.811,-21.790
-0.119,-0.135,0.022,14.099,-83.984,-25.146
-0.168,-0.119,-0.079,29.480,-69.946,-26.062
-0.213,-0.082,-0.166,37.720,-57.617,-26.550
-0.269,-0.048,-0.208,37.231,-48.035,-28.442
-0.344,-0.024,-0.199,30.884,-41.748,-27.649
-0.385,-0.025,-0.153,19.958,-37.109,-22.522
-0.413,-0.039,-0.059,6.409,-34.180,-14.221
-0.423,-0.085,0.033,-4.150,-31.433,-6.775
-0.431,-0.123,0.132,-11.902,-29.297,-3.113
-0.439,-0.152,0.245,-17.395,-25.330,-1.587
-0.429,-0.182,0.348,-19.653,-20.630,0.366
-0.415,-0.200,0.426,-18.799,-16.418,1.587
-0.405,-0.209,0.465,-16.418,-11.841,0.427
-0.416,-0.204,0.492,-14.221,-7.935,-3.113
-0.431,-0.180,0.513,-13.062,-5.493,-6.409
-0.446,-0.150,0.534,-13.428,-2.563,-8.484
-0.481,-0.131,0.545,-13.550,0.488,-9.705
-0.504,-0.107,0.578,-15.198,3.235,-9.094
-0.500,-0.087,0.595,-15.320,6.042,-7.324
-0.521,-0.078,0.616,-14.404,8.484,-5.493
-0.526,-0.078,0.619,-14.160,11.841,-3.662
-0.541,-0.089,0.636,-13.672,14.404,-0.977
-0.537,-0.074,0.667,-14.465,16.479,3.052
-0.524,-0.099,0.688,-14.465,17.639,6.104
-0.506,-0.112,0.729,-15.503,17.273,7.202
-0.500,-0.122,0.787,-18.372,15.442,7.080
-0.505,-0.145,0.832,-18.799,13.550,6.409
-0.488,-0.153,0.873,-18.799,12.878,5.676
-0.482,-0.170,0.875,-16.296,13.794,4.089
-0.482,-0.157,0.893,-14.832,13.550,2.625
-0.487,-0.148,0.890,-12.878,14.099,1.404
-0.474,-0.148,0.829,-10.742,16.846,0.305
-0.491,-0.146,0.837,-12.268,17.212,-0.549
-0.488,-0.120,0.843,-16.113,17.883,-0.916
-0.490,-0.118,0.849,-19.531,18.616,0.122
-0.484,-0.108,0.878,-21.606,18.860,0.671
-0.475,-0.107,0.878,-21.423,20.020,0.916
-0.459,-0.102,0.866,-20.020,20.264,2.258
-0.466,-0.109,0.888,-19.592,19.714,3.601
-0.438,-0.124,0.886,-19.287,19.775,4.272
-0.441,-0.136,0.903,-19.409,19.165,3.784
-0.432,-0.132,0.949,-19.836,18.555,2.319
-0.405,-0.119,0.945,-16.968,19.104,0.427
-0.382,-0.107,0.929,-13.367,20.325,-2.808
-0.379,-0.119,0.891,-12.207,17.517,-7.141
-0.425,-0.122,0.879,-12.390,11.230,-11.353
-0.440,-0.105,0.852,-13.611,8.545,-13.428
-0.446,-0.093,0.847,-16.174,8.850,-14.954
-0.464,-0.063,0.859,-19.653,8.606,-15.564
-0.500,-0.030,0.916,-21.545,8.057,-14.282
-0.510,-0.038,0.926,-19.897,9.705,-10.315
-0.478,-0.016,0.939,-16.357,11.963,-6.409
-0.450,-0.034,0.932,-12.390,13.367,-3.784
-0.438,-0.059,0.921,-10.071,13.245,-2.014
-0.425,-0.083,0.885,-9.583,13.062,-1.892
-0.431,-0.107,0.858,-11.169,12.146,-2.136
-0.422,-0.086,0.871,-15.076,12.085,-3.418
-0.438,-0.052,0.912,-19.592,10.925,-4.150
-0.453,-0.052,0.932,-18.921,10.315,-4.517
-0.459,-0.017,0.953,-17.151,10.254,-3.784
-0.444,-0.027,0.912,-13.550,11.169,-3.479
-0.449,-0.031,0.924,-12.451,11.292,-1.953
-0.441,-0.047,0.902,-12.756,10.864,0.061
-0.428,-0.057,0.904,-13.672,10.254,0.671
-0.431,-0.056,0.922,-15.564,9.888,0.854
-0.427,-0.057,0.940,-16.846,10.742,0.854
-0.441,-0.050,0.972,-16.357,11.658,0.977
-0.434,-0.060,0.969,-15.381,12.451,1.465
-0.448,-0.057,0.987,-14.709,13.000,2.258
-0.418,-0.049,0.980,-14.465,13.794,2.441
-0.420,-0.069,0.994,-13.245,13.672,2.441
-0.413,-0.074,0.988,-12.268,13.306,2.869
-0.389,-0.076,1.010,-12.207,13.855,2.563
-0.361,-0.076,1.000,-11.536,13.916,1.404
-0.379,-0.091,1.009,-10.742,11.414,0.244
-0.394,-0.066,1.053,-9.705,8.179,-0.366
-0.386,-0.072,1.016,-6.104,8.606,-1.343
-0.379,-0.065,1.001,-4.517,8.118,-1.465
-0.396,-0.064,0.995,-4.395,5.859,-2.197
-0.391,-0.055,0.977,-4.944,3.601,-2.625
-0.396,-0.050,0.971,-6.409,1.282,-2.502
-0.928,0.607,2.613,-10.925,76.721,10.010
-1.065,0.654,2.748,6.226,24.902,17.090
-1.029,0.696,2.801,24.475,-12.756,23.621
-0.872,0.736,2.763,34.851,-39.246,29.968
-0.799,0.775,2.815,33.752,-61.768,35.339
-0.595,0.762,2.850,30.334,-69.519,41.931
-0.400,0.829,2.905,26.978,-60.181,48.645
-0.184,0.835,2.956,22.705,-67.139,57.312
0.027,0.879,2.963,27.100,-60.364,66.772
0.306,0.939,2.947,32.959,-38.086,74.524
0.518,1.005,3.106,33.264,-45.044,82.581
0.679,1.106,3.425,51.758,-73.853,93.384
0.872,1.083,3.362,98.083,-98.022,98.145
1.078,1.066,3.162,143.799,-112.610,101.440
1.313,1.014,2.867,181.091,-120.117,107.971
1.599,1.008,2.489,205.200,-123.901,110.901
1.806,0.991,2.130,210.022,-130.859,104.675
1.902,0.992,1.827,198.914,-147.034,88.684
1.875,1.008,1.573,178.040,-167.603,66.467
1.786,1.056,1.380,154.419,-182.312,47.913
1.676,1.121,1.199,137.268,-189.026,39.551
1.553,1.197,1.042,131.409,-186.707,37.476
1.471,1.251,0.828,135.864,-171.997,41.504
1.425,1.253,0.499,148.132,-152.100,51.514
1.395,1.227,0.188,155.579,-133.667,60.913
1.362,1.130,-0.016,150.940,-115.417,67.139
1.325,0.980,-0.146,138.123,-99.670,70.374
1.279,0.823,-0.229,120.361,-88.684,69.946
1.262,0.670,-0.246,101.929,-81.116,65.796
1.218,0.542,-0.291,86.304,-80.017,59.631
1.090,0.457,-0.356,72.510,-83.069,47.607
0.968,0.400,-0.380,56.824,-82.275,32.227
0.870,0.350,-0.364,42.480,-79.041,21.423
0.762,0.311,-0.356,32.837,-76.050,14.526
0.625,0.255,-0.399,28.381,-79.407,7.996
0.535,0.238,-0.443,25.574,-84.290,3.357
0.449,0.202,-0.489,18.494,-89.417,2.747
0.365,0.141,-0.519,7.141,-92.163,4.333
0.276,0.082,-0.483,-7.690,-93.140,5.798
0.204,0.035,-0.366,-23.499,-93.811,7.324
0.135,0.018,-0.186,-35.706,-95.398,9.583
0.094,-0.003,-0.054,-36.072,-95.886,12.207
0.063,-0.026,0.011,-23.621,-92.590,15.259
0.078,-0.061,-0.011,-5.066,-86.609,17.334
0.070,-0.069,-0.075,12.634,-80.322,17.090
0.052,-0.082,-0.131,23.132,-74.585,13.855
0.017,-0.093,-0.166,26.245,-69.702,9.521
-0.049,-0.105,-0.157,21.790,-64.453,5.310
-0.104,-0.114,-0.083,10.803,-57.373,2.625
-0.144,-0.123,0.023,-0.366,-50.903,1.770
-0.194,-0.134,0.128,-7.446,-49.744,3.418
-0.210,-0.154,0.198,-10.742,-47.729,4.822
-0.238,-0.161,0.228,-11.719,-43.579,4.944
-0.256,-0.134,0.250,-12.207,-39.185,3.784
-0.343,-0.073,0.324,-10.803,-32.166,0.366
-0.361,-0.056,0.329,-6.836,-27.466,1.526
-0.344,-0.063,0.332,-2.319,-16.724,6.287
-0.353,-0.096,0.343,-4.761,-11.658,7.568
-0.359,-0.107,0.398,-9.583,-8.057,6.714
-0.369,-0.112,0.449,-13.428,-5.066,5.676
-0.381,-0.110,0.501,-15.625,-2.441,4.578
-0.410,-0.109,0.544,-16.541,0.793,4.211
-0.419,-0.087,0.591,-16.724,4.395,4.150
-0.418,-0.057,0.643,-15.930,6.653,3.540
-0.449,-0.064,0.668,-13.184,7.202,2.686
-0.450,-0.073,0.664,-9.766,8.301,2.747
-0.435,-0.071,0.645,-6.165,10.742,4.028
-0.421,-0.089,0.590,-4.150,13.184,4.761
-0.418,-0.106,0.557,-7.019,15.015,4.944
-0.425,-0.110,0.591,-13.611,16.052,4.211
-0.430,-0.095,0.664,-19.531,17.944,4.456
-0.441,-0.090,0.724,-22.461,18.127,5.432
-0.430,-0.088,0.761,-22.156,17.822,6.470
-0.411,-0.077,0.773,-20.630,16.663,6.165
-0.405,-0.100,0.753,-21.301,14.648,3.235
-0.428,-0.110,0.774,-25.757,10.681,0.427
-0.428,-0.088,0.821,-30.579,7.324,-0.671
-0.435,-0.073,0.875,-32.104,5.859,-0.916
-0.443,-0.071,0.894,-29.663,5.798,-1.038
-0.434,-0.055,0.899,-26.123,7.568,-1.282
-0.431,-0.035,0.921,-22.949,9.827,-1.709
-0.441,-0.028,0.936,-19.653,11.292,-2.502
-0.449,-0.016,0.933,-17.456,12.695,-3.235
-0.436,0.009,0.939,-17.395,14.038,-5.554
-0.465,0.006,0.971,-18.616,12.817,-7.141
-0.471,0.002,0.994,-18.005,13.794,-6.775
-0.462,0.009,1.030,-15.991,14.709,-5.737
-0.432,-0.003,1.029,-12.756,15.991,-5.676
-0.437,-0.016,1.034,-10.071,15.869,-6.714
-0.422,-0.012,1.020,-8.301,15.686,-8.423
-0.422,-0.001,1.019,-7.996,14.893,-10.803
-0.434,0.006,1.013,-8.850,13.306,-12.939
-0.441,0.019,1.013,-9.766,11.780,-14.099
-0.452,0.028,1.018,-10.559,9.888,-14.465
-0.462,0.036,1.019,-10.559,8.118,-14.343
-0.466,0.051,1.022,-10.132,7.324,-13.733
-0.481,0.058,1.024,-9.888,7.690,-12.878
-0.495,0.077,1.043,-10.132,7.446,-10.925
-0.494,0.084,1.049,-8.789,6.653,-9.033
-0.494,0.087,1.038,-7.080,5.310,-7.568
-0.488,0.085,1.022,-6.226,4.944,-5.981
-0.478,0.066,0.988,-5.737,5.188,-4.333
-0.462,0.066,0.979,-7.080,3.784,-3.235
-0.451,0.064,0.967,-9.033,1.709,-3.052
-0.448,0.064,0.970,-10.986,-0.671,-3.357
-0.451,0.059,0.958,-11.536,-1.892,-3.479
-0.446,0.061,0.947,-11.292,-1.587,-3.052
-0.449,0.055,0.935,-10.742,-0.488,-2.991
-0.448,0.067,0.940,-10.193,0.000,-3.113
-0.449,0.074,0.946,-9.644,0.610,-3.418
-0.450,0.070,0.945,-8.301,1.343,-3.357
-0.446,0.062,0.938,-6.958,1.526,-3.052
-0.437,0.055,0.927,-6.592,1.404,-2.075
-0.430,0.050,0.926,-7.629,1.038,-1.404
-0.423,0.048,0.941,-9.155,0.488,-0.427
-0.419,0.045,0.945,-9.216,0.122,0.610
-0.420,0.041,0.947,-8.911,-0.488,0.916
-0.412,0.038,0.937,-9.094,-1.221,0.549
-0.412,0.037,0.926,-9.277,-2.441,0.183
0.454,0.782,2.510,58.777,-74.341,103.210
0.583,0.821,2.550,51.392,-82.764,101.929
0.754,0.860,2.598,43.091,-79.468,95.093
0.855,0.916,2.756,34.607,-88.196,85.022
0.954,0.928,2.845,38.208,-106.079,73.303
1.094,0.963,2.888,52.673,-121.704,63.904
1.229,0.973,2.844,74.768,-134.338,59.875
1.345,0.974,2.711,100.952,-142.395,60.913
1.478,0.982,2.540,126.892,-145.203,63.782
1.605,0.981,2.251,152.527,-142.517,65.979
1.683,1.031,1.939,171.082,-144.104,65.125
1.712,1.048,1.574,180.481,-149.048,56.946
1.637,1.092,1.223,174.805,-155.396,44.556
1.525,1.142,0.920,162.415,-162.048,33.508
1.352,1.192,0.721,147.827,-166.138,26.611
1.241,1.233,0.517,131.958,-162.903,25.085
1.093,1.212,0.385,119.019,-151.428,28.076
1.028,1.197,0.315,112.000,-134.766,38.269
0.989,1.091,0.176,110.901,-118.774,53.772
1.013,0.973,0.031,112.061,-109.802,65.674
1.024,0.837,-0.105,106.995,-104.797,70.374
1.015,0.694,-0.234,97.412,-103.577,69.885
1.000,0.566,-0.322,85.938,-106.750,66.223
0.959,0.450,-0.368,69.397,-109.619,59.204
0.883,0.384,-0.334,48.401,-110.718,49.316
0.774,0.320,-0.280,32.288,-109.924,39.734
0.682,0.311,-0.220,20.630,-109.863,33.447
0.576,0.308,-0.156,15.991,-109.619,29.785
0.496,0.262,-0.187,20.691,-103.699,27.893
0.444,0.219,-0.204,26.550,-93.384,28.564
0.458,0.165,-0.240,31.189,-81.116,28.320
0.412,0.088,-0.309,37.170,-69.824,23.071
0.375,0.052,-0.331,36.804,-63.599,16.479
0.326,-0.012,-0.362,31.128,-61.829,10.498
0.253,-0.005,-0.302,22.705,-66.833,4.456
0.144,-0.024,-0.278,15.991,-76.172,-1.465
0.063,-0.031,-0.251,8.972,-82.642,-4.517
-0.016,-0.054,-0.176,1.953,-83.679,-5.859
-0.062,-0.090,-0.118,-0.366,-78.125,-6.042
-0.093,-0.114,-0.070,2.258,-70.313,-5.188
-0.122,-0.123,-0.045,7.324,-62.561,-4.883
-0.142,-0.137,-0.031,12.268,-54.932,-5.676
-0.161,-0.154,-0.036,15.503,-50.598,-6.348
-0.184,-0.138,-0.057,15.503,-49.805,-7.751
-0.248,-0.132,-0.035,11.719,-50.903,-10.437
-0.297,-0.089,-0.002,7.263,-48.096,-11.108
-0.336,-0.067,0.038,1.526,-44.006,-10.437
-0.375,-0.030,0.122,-5.432,-41.016,-9.460
-0.421,-0.040,0.223,-10.071,-37.292,-6.897
-0.429,-0.066,0.256,-9.460,-33.447,-2.930
-0.393,-0.038,0.265,-8.667,-29.846,0.061
-0.429,-0.051,0.271,-7.568,-28.259,0.549
-0.427,-0.046,0.278,-9.277,-23.437,1.038
-0.435,-0.031,0.262,-12.207,-16.479,1.648
-0.465,-0.047,0.262,-14.282,-9.949,1.587
-0.479,-0.023,0.305,-18.921,-4.089,1.831
-0.493,-0.035,0.339,-22.156,2.319,2.991
-0.491,-0.014,0.371,-25.635,8.423,3.967
-0.531,-0.040,0.431,-26.611,13.062,5.615
-0.489,0.010,0.514,-29.846,18.494,8.606
-0.505,-0.027,0.571,-32.471,22.766,10.315
-0.521,-0.038,0.658,-33.325,22.461,12.512
-0.474,0.005,0.744,-34.973,23.865,14.832
-0.475,-0.046,0.748,-33.020,24.841,14.954
-0.481,-0.043,0.819,-32.227,22.766,12.329
-0.472,-0.038,0.869,-32.227,20.996,9.583
-0.449,-0.041,0.904,-29.419,19.104,6.714
-0.469,-0.060,0.924,-25.879,16.113,3.784
-0.457,-0.053,0.915,-23.743,14.221,0.549
-0.474,-0.047,0.914,-23.560,12.451,-2.808
-0.495,-0.028,0.925,-25.452,10.925,-5.554
-0.499,-0.007,0.962,-26.794,10.193,-5.981
-0.507,-0.011,0.983,-24.536,11.353,-5.005
-0.499,-0.004,0.995,-21.423,13.306,-3.906
-0.495,0.002,1.009,-18.860,14.832,-3.662
-0.490,0.009,1.024,-15.503,16.846,-3.662
-0.483,0.003,1.015,-11.841,19.165,-3.723
-0.471,-0.005,1.008,-9.705,20.020,-3.784
-0.466,-0.010,1.012,-9.705,18.921,-4.211
-0.465,-0.015,1.029,-11.353,16.663,-4.761
-0.464,-0.008,1.047,-13.123,13.062,-5.249
-0.447,-0.021,1.054,-14.221,9.705,-5.127
-0.458,-0.029,1.051,-13.611,5.615,-5.188
-0.453,-0.026,1.060,-14.526,2.258,-5.310
-0.449,-0.023,1.053,-14.771,0.244,-5.859
-0.465,-0.004,1.055,-13.611,-1.160,-7.324
-0.474,0.003,1.039,-10.986,-1.709,-8.057
-0.490,0.013,1.031,-8.362,-1.831,-7.935
-0.487,0.022,1.019,-5.737,-0.793,-7.019
-0.487,0.017,0.998,-3.662,0.610,-6.104
-0.484,0.024,0.999,-3.601,0.305,-5.127
-0.481,0.025,1.007,-3.723,-0.183,-4.639
-0.479,0.020,1.002,-3.479,-0.549,-4.333
-0.478,0.017,1.000,-2.869,-1.343,-3.906
-0.469,0.016,0.998,-2.014,-1.709,-3.296
-0.461,0.007,0.990,-0.305,-1.709,-2.808
-0.452,0.001,0.974,1.282,-1.770,-2.563
-0.438,-0.005,0.963,2.930,-1.892,-2.991
-0.427,-0.013,0.938,4.395,-2.197,-3.967
-0.418,-0.017,0.910,5.493,-2.136,-4.761
-0.414,-0.013,0.887,5.554,-3.174,-5.371
-0.401,-0.018,0.850,5.371,-4.517,-6.470
-0.406,0.005,0.805,4.395,-5.249,-8.301
-0.433,0.021,0.763,2.441,-6.836,-11.658
-0.458,0.052,0.752,-0.305,-8.423,-13.916
-0.484,0.066,0.733,-2.136,-8.240,-13.428
-0.494,0.081,0.728,-3.540,-7.263,-10.864
-0.483,0.085,0.727,-4.272,-5.798,-7.446
-0.457,0.076,0.727,-3.906,-4.272,-4.883
-0.432,0.053,0.716,-2.563,-2.441,-3.052
-0.405,0.034,0.710,-1.038,-0.610,-2.563
-0.381,0.003,0.684,0.671,2.014,-2.930
-0.381,-0.028,0.664,1.282,3.723,-4.333
-0.381,-0.026,0.667,-1.587,4.395,-6.897
-0.401,-0.013,0.686,-5.371,4.028,-10.681
-0.427,0.014,0.729,-8.728,2.380,-14.343
-0.449,0.035,0.757,-9.949,1.831,-16.357
-0.450,0.053,0.764,-9.583,2.380,-16.541
-0.462,0.069,0.782,-9.460,2.625,-16.235
-1.082,0.631,2.149,30.518,1.343,34.180
-1.147,0.671,2.353,35.156,3.906,52.795
-1.064,0.655,2.428,48.645,17.334,73.730
-0.964,0.677,2.493,59.448,33.081,86.792
-0.866,0.726,2.652,63.904,54.810,92.407
-0.687,0.749,2.874,75.623,83.923,99.426
-0.435,0.807,3.037,96.863,92.346,109.070
-0.169,0.833,3.081,116.028,66.956,113.708
0.012,0.862,3.073,123.230,11.963,115.845
0.166,0.911,3.269,123.962,-30.273,116.333
0.367,0.972,3.271,132.080,-50.049,109.375
0.489,1.044,3.263,139.465,-68.665,103.882
0.622,1.105,3.191,152.222,-75.928,100.464
0.798,1.181,3.033,167.603,-72.754,101.257
1.000,1.236,2.794,182.800,-66.284,102.234
1.150,1.282,2.497,195.251,-63.293,94.177
1.210,1.361,2.256,195.801,-64.758,74.463
1.273,1.469,2.023,193.481,-68.726,55.237
1.269,1.493,1.658,191.956,-74.585,41.260
1.244,1.490,1.395,179.382,-79.529,31.311
1.273,1.469,1.189,164.429,-80.933,25.513
1.254,1.408,0.971,152.954,-78.735,20.264
1.200,1.367,0.815,142.883,-73.120,11.108
1.193,1.354,0.608,138.062,-64.331,3.540
1.170,1.286,0.293,138.184,-56.519,-1.953
1.136,1.176,-0.056,129.639,-50.842,-10.925
1.051,1.082,-0.243,108.521,-50.842,-20.264
0.982,1.025,-0.324,84.595,-56.274,-23.743
0.876,0.925,-0.369,65.247,-64.026,-20.447
0.788,0.776,-0.391,49.194,-69.153,-15.198
0.744,0.647,-0.343,36.255,-74.402,-8.484
0.700,0.536,-0.267,25.696,-84.534,-1.709
0.636,0.416,-0.255,20.508,-93.384,2.136
0.636,0.356,-0.214,16.113,-102.112,5.005
0.603,0.271,-0.239,12.939,-113.159,6.226
0.492,0.203,-0.255,9.216,-123.291,4.028
0.411,0.161,-0.241,6.165,-130.249,2.319
0.369,0.141,-0.174,2.930,-129.883,2.625
0.306,0.075,-0.100,2.991,-123.779,3.540
0.304,0.014,-0.090,10.864,-114.075,5.920
0.301,-0.060,-0.104,17.151,-105.347,6.348
0.275,-0.105,-0.077,19.226,-100.525,3.601
0.212,-0.123,-0.098,22.339,-100.281,-0.854
0.141,-0.121,-0.137,22.766,-101.624,-4.089
0.064,-0.090,-0.148,20.203,-105.957,-5.432
0.022,-0.094,-0.202,18.494,-107.849,-6.409
-0.034,-0.094,-0.233,15.564,-104.980,-8.057
-0.106,-0.086,-0.237,10.132,-96.375,-9.277
-0.175,-0.063,-0.188,5.066,-85.571,-8.545
-0.196,-0.068,-0.131,2.258,-73.547,-5.676
-0.240,-0.079,-0.049,3.296,-63.660,-0.916
-0.242,-0.094,-0.005,6.531,-53.589,2.563
-0.237,-0.125,0.042,7.690,-45.776,3.296
-0.253,-0.160,0.087,5.432,-40.588,2.625
-0.281,-0.180,0.166,0.732,-36.743,2.258
-0.282,-0.181,0.224,-2.197,-31.616,1.953
-0.266,-0.165,0.277,-3.662,-28.076,0.549
-0.304,-0.147,0.296,-3.601,-28.259,-2.258
-0.327,-0.128,0.295,-3.540,-26.978,-5.432
-0.385,-0.104,0.349,-6.042,-24.414,-6.836
-0.418,-0.098,0.404,-7.202,-18.738,-6.409
-0.444,-0.088,0.451,-5.676,-11.047,-4.761
-0.437,-0.069,0.488,-3.235,-3.418,-2.686
-0.463,-0.067,0.511,-0.488,2.625,-1.465
-0.475,-0.074,0.542,-0.977,6.531,-0.122
-0.466,-0.073,0.588,-3.235,8.362,3.113
-0.459,-0.095,0.619,-5.249,9.094,5.615
-0.439,-0.108,0.658,-7.812,9.094,7.080
-0.431,-0.138,0.681,-10.071,9.399,6.958
-0.417,-0.151,0.689,-12.329,10.071,4.822
-0.427,-0.142,0.707,-15.320,10.498,1.282
-0.449,-0.113,0.744,-18.127,9.949,-2.563
-0.481,-0.082,0.785,-19.043,9.644,-5.310
-0.498,-0.062,0.805,-16.785,10.986,-6.409
-0.489,-0.049,0.811,-13.794,11.780,-6.348
-0.496,-0.045,0.822,-12.085,11.047,-6.592
-0.495,-0.048,0.857,-11.475,10.742,-6.897
-0.484,-0.056,0.889,-10.864,10.986,-6.653
-0.475,-0.065,0.922,-9.949,9.705,-6.104
-0.467,-0.071,0.938,-9.277,7.507,-5.493
-0.453,-0.097,0.932,-8.850,6.897,-5.798
-0.450,-0.094,0.941,-9.277,5.859,-6.836
-0.455,-0.080,0.936,-9.644,4.822,-8.606
-0.470,-0.052,0.939,-9.460,4.639,-10.925
-0.479,-0.031,0.936,-8.972,4.822,-12.024
-0.500,-0.013,0.917,-7.568,4.150,-12.451
-0.516,-0.003,0.923,-6.531,3.296,-12.085
-0.517,0.009,0.914,-4.883,3.845,-11.230
-0.535,0.019,0.908,-2.869,5.920,-9.766
-0.531,0.020,0.906,-2.197,7.812,-6.958
-0.520,0.010,0.923,-3.235,8.850,-3.479
-0.506,-0.001,0.959,-5.188,8.118,-0.305
-0.491,-0.021,0.984,-6.531,6.592,1.831
-0.469,-0.036,1.002,-6.775,5.371,3.113
-0.450,-0.049,1.019,-6.897,4.333,2.747
-0.431,-0.067,1.028,-6.165,3.723,1.099
-0.419,-0.080,1.035,-5.371,2.197,-1.343
-0.447,-0.069,1.038,-4.639,-0.427,-4.578
-0.443,-0.062,1.005,-2.197,-0.977,-6.653
-0.454,-0.054,0.979,-1.282,-2.380,-8.362
-0.470,-0.049,0.946,-1.404,-3.845,-10.071
-0.470,-0.030,0.925,-2.258,-4.822,-10.498
-0.503,-0.006,0.910,-3.296,-5.371,-9.888
-0.508,0.007,0.892,-3.845,-3.845,-8.057
-0.521,0.019,0.908,-4.517,-2.991,-6.592
-0.518,0.018,0.901,-3.723,-1.892,-4.700
-0.505,0.010,0.887,-2.197,-0.732,-2.441
-0.490,-0.011,0.878,-1.526,-0.122,-0.488
-0.480,-0.026,0.875,-2.380,-0.183,1.465
-0.460,-0.036,0.879,-2.930,0.610,2.136
-0.456,-0.043,0.894,-3.662,0.000,1.770
-0.453,-0.050,0.912,-3.296,-0.061,0.977
-0.443,-0.055,0.909,-1.953,0.122,0.000
-0.434,-0.062,0.893,-0.854,-0.122,-1.099
-0.445,-0.062,0.891,-1.709,-1.831,-2.319
-0.453,-0.055,0.898,-2.991,-3.357,-3.296
-0.463,-0.048,0.897,-3.540,-4.089,-3.662
-0.466,-0.043,0.876,-2.930,-4.883,-3.967
-0.475,-0.036,0.865,-2.869,-5.554,-4.395
-0.024,0.906,3.204,-28.442,-8.728,75.439
0.066,0.988,3.449,-15.320,-16.724,86.853
0.286,1.093,3.651,3.906,-12.329,95.459
0.635,1.169,3.751,38.086,6.348,99.426
1.153,1.168,3.686,86.853,21.545,96.680
1.541,1.232,3.494,121.216,-16.479,86.975
1.720,1.271,3.257,145.020,-93.201,74.097
1.932,1.403,3.099,159.668,-147.217,61.462
2.083,1.458,2.842,167.664,-181.458,51.086
2.072,1.568,2.601,176.941,-208.740,45.227
2.090,1.665,2.328,189.453,-222.229,39.307
2.101,1.773,2.004,207.642,-217.407,33.569
2.036,1.853,1.654,228.088,-205.627,31.189
1.996,1.922,1.295,244.202,-190.674,31.128
1.857,1.976,1.001,250.366,-178.650,28.687
1.755,2.019,0.726,248.962,-171.387,27.893
1.640,1.989,0.366,244.629,-166.870,27.832
1.501,1.906,0.057,234.985,-165.344,28.503
1.496,1.803,-0.210,217.407,-161.560,33.997
1.468,1.616,-0.363,195.190,-156.128,40.405
1.432,1.412,-0.453,171.082,-151.917,42.786
1.370,1.240,-0.464,150.208,-146.484,39.734
1.354,1.109,-0.491,134.338,-141.663,33.203
1.277,0.940,-0.606,123.474,-138.245,24.109
1.160,0.769,-0.720,108.215,-138.611,15.442
1.056,0.655,-0.781,88.928,-140.503,9.033
0.907,0.561,-0.797,69.275,-143.066,4.456
0.732,0.483,-0.803,52.734,-141.602,-0.183
0.599,0.451,-0.754,41.565,-136.475,-3.052
0.470,0.398,-0.655,36.255,-131.470,-1.404
0.440,0.323,-0.592,35.217,-122.253,3.052
0.411,0.192,-0.545,34.485,-115.601,5.920
0.372,0.104,-0.445,32.166,-114.746,6.042
0.354,0.027,-0.313,29.419,-113.647,5.615
0.307,-0.046,-0.219,30.762,-109.253,3.418
0.229,-0.086,-0.160,36.377,-101.807,-0.305
0.151,-0.074,-0.135,44.312,-91.187,-4.089
0.130,-0.007,-0.089,48.157,-80.383,-7.019
0.049,0.005,-0.081,50.842,-76.355,-8.423
0.003,-0.021,-0.120,50.903,-73.181,-7.996
0.009,0.024,-0.127,45.715,-70.984,-7.263
-0.034,-0.017,-0.127,40.222,-69.458,-7.935
-0.084,-0.076,-0.129,36.316,-63.660,-8.362
-0.054,-0.072,-0.133,31.250,-51.819,-8.240
-0.126,-0.102,-0.072,24.231,-44.006,-7.874
-0.153,-0.081,0.016,16.602,-37.781,-6.958
-0.190,-0.089,0.087,11.597,-32.410,-6.897
-0.245,-0.092,0.155,10.132,-29.175,-7.080
-0.217,-0.062,0.159,9.338,-22.888,-7.690
-0.262,-0.043,0.223,4.517,-23.804,-8.118
-0.272,-0.058,0.218,2.014,-24.658,-7.080
-0.264,-0.072,0.229,-2.258,-20.203,-3.601
-0.239,-0.090,0.179,-8.545,-17.212,-1.160
-0.284,-0.127,0.224,-18.860,-18.860,-0.610
-0.302,-0.117,0.327,-32.227,-20.996,-1.648
-0.347,-0.110,0.455,-41.382,-21.179,-2.930
-0.383,-0.101,0.583,-45.776,-20.630,-2.747
-0.380,-0.089,0.652,-44.800,-16.602,-1.099
-0.388,-0.084,0.757,-40.161,-11.536,0.183
-0.389,-0.100,0.761,-29.724,-6.470,0.977
-0.375,-0.099,0.748,-22.583,-1.404,1.770
-0.371,-0.099,0.731,-19.348,2.625,1.160
-0.385,-0.085,0.746,-20.386,5.554,0.183
-0.368,-0.051,0.797,-22.766,7.568,0.366
-0.399,-0.070,0.805,-22.217,9.521,0.244
-0.401,-0.062,0.832,-21.423,11.414,1.099
-0.392,-0.042,0.865,-20.874,12.634,1.648
-0.395,-0.025,0.901,-18.799,14.587,1.160
-0.401,-0.026,0.932,-16.785,16.357,0.366
-0.407,-0.043,0.951,-14.526,17.761,1.282
-0.391,-0.075,0.961,-13.184,16.602,2.686
-0.388,-0.082,1.010,-14.404,13.855,3.052
-0.377,-0.092,1.054,-15.259,11.353,2.258
-0.365,-0.094,1.097,-14.648,8.789,0.793
-0.359,-0.108,1.099,-12.268,7.019,-1.343
-0.359,-0.116,1.098,-10.376,6.653,-3.418
-0.365,-0.112,1.088,-8.667,6.226,-5.676
-0.378,-0.098,1.070,-7.202,5.554,-7.629
-0.394,-0.072,1.070,-7.507,4.761,-9.460
-0.421,-0.051,1.071,-7.996,4.211,-10.803
-0.444,-0.031,1.082,-7.874,3.113,-10.925
-0.464,-0.021,1.085,-6.348,3.357,-9.216
-0.464,-0.019,1.082,-3.906,3.845,-6.287
-0.433,-0.018,1.072,-2.014,3.845,-3.235
-0.431,-0.030,1.068,-0.732,2.869,-1.282
-0.411,-0.048,1.054,-0.122,2.502,0.183
-0.390,-0.061,1.035,-0.061,2.014,1.831
-0.366,-0.079,1.021,-1.221,0.671,3.479
-0.352,-0.093,1.020,-3.296,-1.282,3.479
-0.344,-0.094,1.019,-4.639,-3.235,1.831
-0.348,-0.091,1.022,-5.249,-4.211,-0.305
-0.359,-0.087,1.022,-5.188,-4.883,-2.808
-0.362,-0.075,1.016,-3.906,-5.676,-5.249
-0.378,-0.067,1.004,-1.892,-6.348,-6.836
-0.390,-0.059,0.985,0.305,-6.042,-7.446
-0.393,-0.055,0.970,1.526,-6.226,-7.080
-0.395,-0.051,0.962,1.404,-7.263,-6.531
-0.395,-0.046,0.955,1.282,-7.935,-5.859
-0.389,-0.043,0.943,1.526,-7.751,-5.798
-0.391,-0.036,0.935,1.465,-7.568,-5.493
-0.396,-0.032,0.911,2.136,-7.507,-5.615
-0.402,-0.032,0.885,2.441,-7.385,-5.859
-0.407,-0.040,0.853,1.404,-7.385,-5.859
-0.383,0.010,0.877,-1.709,-8.118,-5.432
-0.420,-0.025,0.846,-3.174,-8.606,-6.470
-0.413,-0.007,0.862,-4.517,-8.362,-6.165
-0.414,-0.021,0.854,-4.883,-7.507,-5.310
-0.410,-0.021,0.848,-4.700,-6.836,-4.272
-0.402,-0.025,0.846,-4.822,-6.531,-3.662
-0.402,-0.026,0.841,-4.578,-6.226,-3.601
-0.407,-0.022,0.833,-4.333,-5.920,-3.906
-0.409,-0.020,0.812,-3.662,-4.822,-3.601
-0.416,-0.016,0.803,-4.150,-3.601,-3.113
-0.422,-0.008,0.805,-6.287,-3.235,-2.441
-0.430,-0.003,0.827,-8.911,-3.357,-1.282
-0.426,-0.005,0.845,-10.376,-3.906,0.427
-0.417,-0.011,0.846,-10.437,-4.456,1.953
-0.406,-0.011,0.851,-10.193,-4.456,2.625
-0.407,-0.016,0.858,-9.399,-3.906,2.075
-0.940,0.602,1.959,32.349,2.258,42.297
-1.052,0.590,2.136,42.297,-7.141,68.726
-0.928,0.497,2.150,60.120,-1.221,90.149
-0.574,0.469,2.168,75.500,8.911,96.375
-0.713,0.375,2.222,72.266,-25.391,94.116
-0.545,0.362,2.318,69.885,-11.597,76.111
-0.482,0.371,2.416,63.660,-11.414,56.213
-0.494,0.425,2.571,57.800,-11.841,36.743
-0.523,0.501,2.734,55.359,-5.737,23.376
-0.671,0.610,2.977,56.030,-2.869,21.912
-0.648,0.660,3.261,63.843,-2.258,39.063
-0.564,0.682,3.535,71.838,-28.320,67.993
-0.493,0.737,3.683,91.064,-66.772,101.257
-0.214,0.699,3.644,129.822,-69.702,135.559
0.216,0.663,3.471,169.006,-62.988,161.194
0.616,0.600,3.154,195.190,-53.467,166.077
1.033,0.578,2.796,203.186,-39.978,151.917
1.399,0.603,2.539,188.049,-29.602,121.155
1.545,0.602,2.286,161.499,-28.809,79.346
1.516,0.685,2.363,126.160,-49.133,37.476
1.268,0.835,2.654,106.140,-107.239,12.207
1.140,0.935,2.651,114.990,-159.851,6.226
1.156,1.018,2.415,137.756,-180.786,16.785
1.235,1.008,2.040,160.767,-179.932,38.513
1.387,1.032,1.652,175.354,-170.959,60.364
1.524,1.017,1.235,179.626,-155.151,71.289
1.568,1.010,0.882,169.250,-139.832,70.923
1.525,0.997,0.650,147.827,-127.686,65.063
1.505,0.976,0.438,126.038,-113.647,57.800
1.455,0.972,0.308,104.675,-98.083,49.866
1.419,0.902,0.146,88.623,-86.121,40.588
1.308,0.796,-0.034,76.355,-84.106,26.550
1.203,0.741,-0.168,58.105,-88.135,12.390
1.086,0.661,-0.235,38.269,-93.811,2.075
0.979,0.614,-0.319,23.926,-98.511,-4.211
0.864,0.591,-0.402,15.625,-98.450,-8.057
0.797,0.542,-0.491,8.362,-98.267,-10.132
0.720,0.472,-0.546,-1.892,-100.525,-8.667
0.620,0.371,-0.605,-13.916,-101.379,-6.470
0.508,0.282,-0.585,-27.100,-104.309,-4.517
0.443,0.217,-0.459,-40.649,-107.239,0.305
0.380,0.117,-0.370,-44.739,-107.117,5.920
0.345,0.032,-0.305,-40.161,-106.262,9.827
0.296,-0.073,-0.326,-31.738,-101.807,10.254
0.249,-0.130,-0.261,-24.536,-94.849,7.874
0.217,-0.186,-0.216,-15.381,-87.585,4.089
0.174,-0.189,-0.174,-9.521,-86.975,-0.305
0.151,-0.188,-0.132,-6.714,-93.201,-5.432
0.109,-0.182,-0.127,-5.005,-103.271,-11.841
0.032,-0.166,-0.157,-1.892,-107.666,-19.226
-0.050,-0.133,-0.177,1.587,-100.281,-25.085
-0.099,-0.076,-0.191,5.249,-85.510,-26.489
-0.182,-0.069,-0.181,10.193,-70.129,-22.766
-0.181,-0.027,-0.203,15.320,-56.946,-16.479
-0.240,-0.055,-0.223,16.602,-45.471,-10.803
-0.250,-0.049,-0.188,10.742,-39.551,-6.775
-0.287,-0.052,-0.098,3.540,-34.729,-3.601
-0.284,-0.087,-0.012,-0.671,-28.809,-1.038
-0.273,-0.081,0.041,-3.479,-25.146,0.366
-0.280,-0.120,0.041,-5.737,-23.682,-0.977
-0.313,-0.129,0.042,-11.597,-24.597,-5.066
-0.355,-0.112,0.094,-20.935,-22.217,-8.179
-0.391,-0.107,0.129,-25.940,-18.311,-9.216
-0.433,-0.077,0.201,-31.738,-12.817,-8.545
-0.465,-0.002,0.315,-33.630,-7.263,-6.836
-0.496,0.000,0.385,-32.959,-1.953,-2.991
-0.514,-0.010,0.402,-30.212,3.662,2.380
-0.470,0.011,0.457,-27.039,7.935,8.179
-0.483,-0.010,0.490,-25.208,11.719,11.719
-0.437,-0.003,0.461,-25.024,15.503,13.428
-0.491,-0.029,0.494,-24.475,19.531,13.123
-0.469,0.010,0.558,-27.344,23.010,13.306
-0.498,-0.028,0.540,-27.405,26.672,11.353
-0.504,0.014,0.642,-26.978,28.137,10.742
-0.505,-0.006,0.657,-25.208,29.297,10.193
-0.512,0.031,0.743,-25.513,29.419,9.766
-0.514,0.011,0.758,-24.780,29.053,8.972
-0.493,0.017,0.801,-22.949,24.536,8.057
-0.502,0.012,0.838,-22.217,24.963,6.409
-0.467,0.024,0.899,-23.132,26.550,4.822
-0.445,0.023,0.903,-22.339,26.367,2.563
-0.475,0.005,0.958,-21.301,24.841,0.061
-0.472,-0.000,0.985,-20.020,23.437,-1.526
-0.486,0.002,1.007,-17.944,24.780,-2.991
-0.487,0.005,1.022,-16.113,25.513,-4.028
-0.493,0.010,1.039,-14.343,26.245,-3.723
-0.494,0.011,1.060,-13.855,26.611,-2.502
-0.497,0.012,1.067,-12.878,26.306,-0.671
-0.477,0.015,1.067,-12.146,24.414,0.732
-0.464,0.010,1.080,-12.878,21.667,-0.061
-0.469,0.001,1.092,-14.221,18.555,-2.441
-0.473,0.003,1.106,-14.771,15.991,-4.028
-0.476,0.000,1.105,-13.611,14.526,-4.456
-0.464,-0.002,1.097,-12.207,13.733,-3.906
-0.465,-0.001,1.096,-11.719,12.695,-4.150
-0.463,0.011,1.103,-11.292,11.536,-5.005
-0.464,0.016,1.079,-9.399,10.742,-5.920
-0.462,0.020,1.053,-7.874,9.766,-5.920
-0.463,0.021,1.032,-8.362,8.667,-6.226
-0.463,0.028,1.039,-10.498,5.798,-6.226
-0.460,0.029,1.046,-11.292,2.991,-4.883
-0.439,0.026,1.020,-9.583,2.197,-3.601
-0.437,0.018,1.012,-8.423,1.709,-3.723
-0.433,0.003,1.000,-6.592,2.441,-3.662
-0.420,-0.006,0.988,-4.395,3.113,-3.113
-0.407,-0.019,0.967,-3.052,3.845,-2.930
-0.406,-0.020,0.958,-3.418,4.089,-3.967
-0.413,-0.009,0.969,-4.639,2.930,-5.310
-0.418,0.008,0.981,-5.310,1.282,-6.409
-0.419,0.013,0.982,-5.005,0.671,-6.348
-0.406,0.010,0.960,-3.662,-0.366,-6.226
-0.396,0.005,0.920,-2.563,-1.953,-6.653
-0.391,0.005,0.894,-2.930,-3.601,-7.568
-0.393,0.011,0.877,-4.089,-4.395,-7.935
-0.387,0.019,0.856,-4.028,-4.883,-7.568
-0.371,0.010,0.811,-3.052,-4.883,-6.714
-0.354,0.017,0.786,-2.747,-4.944,-6.958
-0.344,0.017,0.767,-3.113,-5.371,-7.996
-0.332,0.024,0.742,-3.174,-5.615,-9.277
-0.836,0.644,1.318,-64.941,-27.832,18.799
-0.803,0.778,1.521,-80.627,-36.865,15.076
-0.770,0.887,1.704,-79.224,-36.438,5.493
-0.761,1.009,1.848,-57.495,-25.208,-7.690
-0.741,1.075,1.927,-17.639,-11.597,-23.926
-0.705,1.117,1.984,26.917,-0.488,-40.710
-0.723,1.162,2.055,65.125,12.024,-56.458
-0.746,1.180,2.113,90.027,25.513,-69.763
-0.800,1.139,2.180,101.501,39.795,-82.458
-0.873,1.098,2.258,103.638,52.612,-92.834
-0.952,1.059,2.282,102.295,64.697,-100.037
-0.991,0.990,2.309,97.900,77.393,-104.980
-1.066,0.855,2.335,88.074,90.820,-109.802
-1.157,0.688,2.317,78.247,103.821,-113.892
-1.268,0.533,2.255,74.280,118.408,-118.652
-1.374,0.351,2.173,82.703,131.470,-123.779
-1.471,0.121,2.095,102.478,142.822,-127.686
-1.591,-0.083,2.017,130.188,155.701,-128.784
-1.677,-0.269,1.841,160.095,171.997,-125.732
-1.753,-0.455,1.590,184.998,188.599,-117.310
-1.762,-0.626,1.372,191.833,206.787,-102.539
-1.753,-0.732,1.199,173.462,219.849,-82.520
-1.709,-0.780,1.027,140.137,220.459,-62.073
-1.644,-0.778,0.961,106.262,212.646,-47.546
-1.591,-0.726,0.965,86.487,202.698,-38.513
-1.540,-0.699,0.927,86.121,193.604,-33.203
-1.483,-0.759,0.799,96.130,189.819,-29.846
-1.446,-0.815,0.644,106.201,188.965,-24.475
-1.411,-0.843,0.427,113.892,186.951,-15.625
-1.358,-0.886,0.204,120.850,185.974,-7.324
-1.322,-0.950,-0.081,129.089,186.890,-0.610
-1.250,-0.967,-0.312,135.803,189.392,9.399
-1.122,-0.952,-0.509,131.714,187.012,20.996
-0.996,-0.911,-0.626,111.938,172.119,33.447
-0.918,-0.794,-0.633,80.322,148.987,46.082
-0.880,-0.556,-0.503,46.265,123.657,55.542
-0.806,-0.294,-0.344,17.151,100.525,58.350
-0.703,-0.164,-0.154,-2.686,81.848,54.321
-0.598,-0.152,0.050,-22.461,67.688,46.631
-0.543,-0.144,0.264,-45.593,57.556,40.466
-0.497,-0.134,0.408,-64.758,55.908,34.851
-0.458,-0.104,0.469,-69.763,64.453,28.687
-0.430,-0.120,0.447,-58.655,81.055,21.912
-0.397,-0.193,0.358,-38.147,99.121,17.029
-0.362,-0.237,0.284,-18.860,110.596,15.259
-0.324,-0.237,0.242,-4.089,113.831,17.273
-0.298,-0.236,0.204,5.066,114.929,20.630
-0.311,-0.223,0.148,8.789,118.042,24.048
-0.351,-0.144,0.097,6.592,119.019,28.320
-0.359,-0.053,0.092,3.113,111.877,31.738
-0.311,-0.039,0.108,0.549,99.304,30.701
-0.241,-0.045,0.163,-3.967,85.571,27.466
-0.180,-0.038,0.258,-11.292,75.012,24.780
-0.113,-0.035,0.330,-14.526,69.458,22.705
-0.064,-0.054,0.355,-11.780,67.566,18.616
-0.037,-0.077,0.365,-5.188,67.871,13.245
-0.008,-0.108,0.372,1.587,69.824,8.484
0.002,-0.147,0.358,10.620,72.754,5.676
0.015,-0.169,0.312,18.982,75.195,5.188
0.034,-0.190,0.255,24.048,75.928,5.859
0.043,-0.217,0.207,23.743,74.585,6.653
0.044,-0.208,0.191,19.775,68.115,9.155
0.062,-0.192,0.176,13.611,57.373,10.803
0.120,-0.178,0.191,6.348,45.471,10.071
0.159,-0.159,0.279,-0.122,31.189,10.681
0.208,-0.142,0.414,-4.089,18.188,11.475
0.232,-0.161,0.514,-2.319,11.536,9.399
0.244,-0.183,0.584,2.808,10.498,6.226
0.236,-0.212,0.635,7.996,11.536,3.113
0.241,-0.271,0.673,12.756,11.597,1.221
0.242,-0.295,0.711,13.794,10.376,1.160
0.212,-0.314,0.719,9.521,9.949,1.953
0.192,-0.332,0.727,2.014,11.475,2.075
0.201,-0.357,0.712,-3.357,12.695,2.869
0.195,-0.379,0.694,-5.859,11.047,4.517
0.207,-0.366,0.704,-6.409,7.080,7.019
0.216,-0.350,0.726,-3.784,3.052,9.277
0.230,-0.310,0.749,-0.305,0.305,11.169
0.248,-0.275,0.777,1.099,-1.831,11.841
0.261,-0.265,0.800,1.526,-2.441,11.230
0.264,-0.260,0.820,-0.122,-2.197,9.277
0.250,-0.256,0.828,-2.258,-1.160,7.812
0.243,-0.257,0.824,-3.235,0.610,6.287
0.235,-0.267,0.825,-3.296,1.648,4.272
0.230,-0.277,0.840,-3.967,1.465,2.319
0.235,-0.298,0.867,-3.601,0.488,1.160
0.243,-0.313,0.899,-2.563,-0.061,0.427
0.239,-0.337,0.904,0.000,1.282,0.427
0.221,-0.342,0.890,2.136,3.479,0.610
0.214,-0.358,0.870,3.296,4.761,1.160
0.208,-0.351,0.843,4.333,4.700,2.197
0.200,-0.329,0.820,3.784,2.502,4.333
0.206,-0.320,0.815,-0.061,-1.160,5.676
0.217,-0.321,0.829,-7.019,-5.188,6.165
0.222,-0.328,0.862,-16.113,-8.728,6.714
0.225,-0.340,0.913,-24.475,-11.780,8.484
0.219,-0.335,0.959,-29.236,-13.367,10.498
0.213,-0.314,0.994,-28.870,-13.184,12.695
0.220,-0.284,1.012,-24.902,-10.925,13.245
0.228,-0.251,1.023,-17.090,-7.324,12.085
0.233,-0.222,1.001,-6.592,-2.380,9.888
0.247,-0.213,0.941,4.395,3.113,6.470
0.243,-0.216,0.873,14.038,7.019,2.808
0.233,-0.222,0.819,18.921,7.568,1.099
0.224,-0.232,0.791,16.846,4.944,0.244
0.211,-0.240,0.799,9.033,0.549,0.488
0.206,-0.246,0.846,-1.892,-4.333,1.526
0.214,-0.246,0.915,-11.719,-8.606,2.258
0.229,-0.244,0.968,-15.808,-10.193,1.648
0.238,-0.246,0.982,-13.000,-8.484,0.793
0.245,-0.261,0.975,-7.935,-5.249,-0.427
0.242,-0.277,0.956,-2.991,-2.258,-1.160
0.227,-0.281,0.927,0.793,0.793,-1.587
0.220,-0.267,0.895,4.150,3.113,-1.526
0.214,-0.264,0.879,7.324,3.540,-1.587
0.212,-0.269,0.868,8.911,2.441,-1.221
0.211,-0.274,0.859,7.080,1.587,-1.160
0.207,-0.276,0.854,3.357,0.427,-0.549
0.205,-0.274,0.864,0.122,-1.343,0.244
-0.534,0.413,1.661,28.503,47.363,-7.751
-0.540,0.418,1.714,28.442,43.640,-10.620
-0.543,0.409,1.761,26.855,41.748,-14.954
-0.556,0.355,1.790,26.489,44.739,-22.522
-0.584,0.268,1.819,30.823,50.659,-32.898
-0.596,0.197,1.871,43.701,58.044,-43.091
-0.593,0.141,1.912,62.073,64.514,-51.636
-0.587,0.080,1.939,78.613,73.486,-60.547
-0.621,0.050,1.939,88.318,85.327,-70.068
-0.675,-0.001,1.904,91.492,95.093,-80.383
-0.694,-0.152,1.882,87.830,100.037,-91.431
-0.714,-0.322,1.909,73.792,101.074,-96.191
-0.752,-0.406,1.923,50.415,102.173,-93.445
-0.814,-0.485,1.954,26.428,104.919,-91.003
-0.829,-0.563,1.955,7.935,110.474,-92.407
-0.881,-0.660,1.950,2.197,119.446,-96.313
-0.946,-0.805,1.903,12.939,132.446,-101.501
-1.001,-0.937,1.817,40.283,147.400,-102.539
-1.019,-1.002,1.738,80.383,161.682,-95.459
-1.033,-1.064,1.599,122.192,177.795,-77.759
-1.023,-1.132,1.436,145.935,198.669,-53.040
-1.036,-1.114,1.299,142.212,216.797,-30.212
-1.070,-1.051,1.156,120.911,225.342,-12.329
-1.053,-1.012,1.026,81.848,221.069,-0.183
-1.023,-1.015,0.946,29.907,208.801,8.850
-0.998,-1.015,0.924,-24.414,195.374,13.245
-0.941,-1.015,0.947,-67.139,183.105,12.207
-0.885,-1.019,0.940,-82.336,174.438,7.202
-0.869,-1.001,0.923,-73.242,171.753,0.122
-0.867,-0.977,0.858,-52.551,177.917,-4.822
-0.881,-0.953,0.748,-31.433,190.979,-7.935
-0.856,-0.915,0.600,-15.503,202.332,-9.644
-0.816,-0.845,0.456,-7.385,208.313,-10.620
-0.786,-0.757,0.306,-4.700,212.891,-10.925
-0.771,-0.689,0.140,-8.606,220.703,-12.817
-0.795,-0.676,-0.023,-16.235,228.638,-15.991
-0.842,-0.747,-0.223,-29.297,231.201,-18.921
-0.861,-0.824,-0.347,-44.312,219.299,-18.066
-0.849,-0.823,-0.321,-55.725,183.838,-9.338
-0.773,-0.817,-0.205,-65.308,136.719,6.409
-0.659,-0.637,-0.090,-79.895,93.445,24.475
-0.545,-0.544,0.156,-92.529,54.260,34.119
-0.453,-0.435,0.437,-99.731,27.954,34.851
-0.380,-0.334,0.661,-100.159,22.400,29.602
-0.313,-0.301,0.754,-90.942,38.879,18.066
-0.298,-0.296,0.771,-69.519,68.909,4.822
-0.287,-0.322,0.669,-40.405,101.868,-5.310
-0.284,-0.363,0.512,-9.949,126.404,-9.521
-0.296,-0.370,0.393,10.010,136.414,-7.080
-0.244,-0.318,0.300,15.076,136.047,-0.488
-0.183,-0.270,0.225,10.986,131.714,7.874
-0.149,-0.188,0.166,2.319,126.343,17.456
-0.125,-0.118,0.096,-9.766,120.605,24.719
-0.093,-0.077,0.026,-23.010,115.540,26.733
-0.057,-0.054,-0.049,-33.569,108.643,25.146
-0.014,-0.050,-0.102,-39.246,96.558,21.606
0.017,-0.071,-0.108,-40.771,80.872,18.127
0.048,-0.106,-0.081,-39.001,65.247,15.442
0.088,-0.132,-0.037,-35.156,52.124,13.000
0.132,-0.167,0.016,-28.503,41.870,11.292
0.177,-0.199,0.062,-19.165,35.217,10.620
0.225,-0.214,0.101,-8.606,30.457,11.597
0.280,-0.237,0.155,3.052,25.940,13.245
0.318,-0.242,0.211,15.869,22.949,16.357
0.323,-0.252,0.245,25.513,22.766,20.203
0.334,-0.268,0.280,29.297,22.888,23.682
0.341,-0.235,0.334,28.198,21.545,26.428
0.332,-0.165,0.417,26.123,18.677,27.527
0.335,-0.115,0.458,25.330,16.724,24.780
0.359,-0.105,0.472,24.597,15.930,18.372
0.385,-0.134,0.468,21.545,14.465,10.193
0.409,-0.195,0.471,16.785,12.024,3.296
0.429,-0.251,0.451,10.620,8.911,0.183
0.438,-0.296,0.459,2.380,5.493,0.854
0.429,-0.325,0.456,-8.789,2.258,3.967
0.430,-0.324,0.476,-19.287,-2.502,8.972
0.441,-0.309,0.518,-27.893,-9.094,13.611
0.449,-0.280,0.597,-33.142,-15.991,17.761
0.468,-0.254,0.672,-33.325,-20.752,20.264
0.482,-0.223,0.744,-28.076,-21.362,20.386
0.494,-0.192,0.797,-18.127,-17.883,18.616
0.500,-0.164,0.844,-4.578,-13.184,15.442
0.510,-0.149,0.867,8.240,-8.179,10.498
0.521,-0.148,0.856,19.531,-1.831,5.371
0.514,-0.165,0.830,26.001,4.700,0.610
0.500,-0.203,0.782,26.855,9.644,-3.357
0.477,-0.253,0.721,21.973,12.878,-6.042
0.446,-0.298,0.679,13.428,12.512,-5.249
0.427,-0.324,0.660,1.953,7.507,-2.502
0.428,-0.332,0.673,-9.827,-0.427,1.526
0.435,-0.315,0.728,-20.081,-8.728,5.188
0.453,-0.307,0.776,-26.001,-14.587,7.629
0.472,-0.307,0.811,-28.870,-16.785,8.789
0.470,-0.289,0.851,-28.748,-15.930,9.460
0.466,-0.262,0.874,-26.062,-13.306,8.423
0.463,-0.254,0.881,-19.714,-9.338,6.104
0.459,-0.264,0.875,-11.292,-5.432,3.418
0.455,-0.281,0.871,-3.113,-2.563,1.404
0.453,-0.280,0.859,2.441,-0.366,0.610
0.452,-0.270,0.835,7.080,1.404,1.709
0.447,-0.261,0.813,8.850,1.648,3.235
0.447,-0.247,0.814,6.592,-0.366,5.066
0.448,-0.228,0.824,2.441,-2.930,6.653
0.449,-0.219,0.828,-1.831,-4.639,7.507
0.457,-0.223,0.825,-5.676,-6.165,6.592
0.461,-0.235,0.836,-7.202,-7.568,5.737
0.465,-0.250,0.847,-6.042,-7.507,4.639
0.471,-0.247,0.851,-2.930,-5.981,4.272
0.469,-0.234,0.848,0.854,-4.456,4.211
0.466,-0.219,0.841,3.601,-3.601,4.272
0.465,-0.209,0.840,3.662,-3.906,3.540
0.469,-0.198,0.851,1.953,-5.798,3.601
0.470,-0.195,0.865,-1.282,-7.629,3.235
0.466,-0.201,0.877,-5.249,-8.545,2.808
0.459,-0.204,0.884,-8.606,-8.728,2.869
0.461,-0.204,0.895,-11.047,-8.911,2.258
0.464,-0.209,0.899,-12.085,-8.423,1.099
0.471,-0.225,0.898,-11.719,-7.568,0.977
0.478,-0.232,0.911,-12.695,-7.080,1.343
-0.759,0.393,1.797,19.470,46.326,-1.648
-0.784,0.516,1.874,34.607,54.077,-6.104
-0.844,0.599,1.953,47.729,62.744,-12.817
-0.874,0.647,1.976,58.655,71.594,-20.996
-0.906,0.671,1.997,65.247,80.750,-33.020
-0.868,0.645,2.014,70.801,91.797,-45.654
-0.866,0.638,2.039,75.745,103.149,-56.824
-0.868,0.620,2.038,79.529,115.417,-67.017
-0.843,0.563,2.017,75.745,127.319,-76.416
-0.820,0.423,1.974,58.350,135.620,-84.167
-0.794,0.257,1.958,25.452,140.747,-89.355
-0.804,0.146,2.017,-14.526,143.066,-89.539
-0.824,0.089,2.108,-47.974,143.066,-87.891
-0.846,0.017,2.242,-64.575,145.264,-89.783
-0.898,-0.036,2.429,-64.880,152.222,-96.741
-0.988,-0.137,2.546,-50.415,162.170,-106.384
-1.144,-0.245,2.703,-26.611,174.866,-117.554
-1.262,-0.392,2.734,3.662,197.388,-131.775
-1.389,-0.620,2.641,42.725,228.088,-147.888
-1.546,-0.924,2.408,85.815,261.230,-161.011
-1.665,-1.248,2.082,124.695,293.091,-167.114
-1.807,-1.578,1.656,156.433,322.815,-161.438
-1.785,-1.900,1.192,178.406,354.004,-144.409
-1.755,-2.134,0.761,192.932,369.629,-120.605
-1.655,-2.240,0.377,193.848,361.145,-90.210
-1.541,-2.214,0.132,179.321,330.688,-54.260
-1.442,-2.057,0.014,148.193,286.865,-17.578
-1.357,-1.849,-0.034,107.971,241.577,12.634
-1.270,-1.659,-0.034,68.909,203.552,33.691
-1.192,-1.534,0.003,37.231,174.072,47.058
-1.106,-1.447,0.019,15.869,153.320,54.626
-1.037,-1.361,0.005,7.751,143.188,58.716
-0.970,-1.274,-0.036,13.184,144.226,62.195
-0.916,-1.178,-0.154,26.855,147.766,67.688
-0.871,-1.048,-0.291,40.100,147.583,72.937
-0.814,-0.882,-0.423,48.096,143.250,75.867
-0.734,-0.672,-0.539,49.622,134.155,77.209
-0.669,-0.459,-0.606,44.250,119.263,77.576
-0.592,-0.295,-0.633,27.710,97.900,77.209
-0.504,-0.209,-0.597,-2.380,73.364,74.829
-0.451,-0.173,-0.507,-41.321,50.964,70.557
-0.376,-0.162,-0.404,-79.895,34.729,65.186
-0.303,-0.165,-0.292,-108.459,24.414,59.692
-0.233,-0.169,-0.181,-124.817,18.188,54.993
-0.184,-0.170,-0.084,-128.418,15.503,51.270
-0.147,-0.172,0.018,-122.070,15.015,48.828
-0.112,-0.160,0.131,-111.877,14.404,47.729
-0.069,-0.131,0.219,-101.013,15.991,47.546
-0.038,-0.085,0.281,-89.600,20.996,46.631
-0.003,-0.030,0.297,-75.989,28.503,44.067
0.024,-0.004,0.275,-60.913,36.560,39.917
0.044,-0.020,0.231,-48.767,42.419,35.339
0.050,-0.046,0.195,-45.166,44.434,31.372
0.058,-0.076,0.195,-48.462,41.809,28.931
0.064,-0.099,0.227,-52.856,36.743,28.503
0.085,-0.104,0.273,-55.481,30.640,29.541
0.110,-0.099,0.333,-54.077,24.780,30.823
0.143,-0.090,0.389,-48.523,20.020,30.518
0.163,-0.084,0.436,-39.368,16.846,28.870
0.185,-0.096,0.483,-27.649,15.137,26.428
0.223,-0.119,0.517,-16.174,13.000,24.292
0.251,-0.132,0.573,-7.507,10.925,22.705
0.267,-0.136,0.626,-1.953,11.658,21.973
0.267,-0.147,0.646,2.136,16.785,21.179
0.309,-0.154,0.652,3.784,24.109,18.555
0.326,-0.166,0.638,3.784,27.466,14.771
0.328,-0.174,0.626,2.380,26.611,10.193
0.339,-0.214,0.595,0.549,23.499,6.592
0.339,-0.261,0.585,-1.526,19.897,3.418
0.343,-0.294,0.572,-3.357,16.174,1.404
0.338,-0.327,0.548,-3.662,11.780,0.916
0.332,-0.362,0.524,-3.235,6.592,1.831
0.331,-0.377,0.534,-3.845,-0.610,3.845
0.341,-0.360,0.572,-6.409,-8.972,6.470
0.347,-0.345,0.623,-8.911,-14.954,9.583
0.362,-0.328,0.670,-11.230,-15.686,12.634
0.365,-0.311,0.702,-14.038,-14.832,15.320
0.358,-0.297,0.733,-16.113,-15.198,17.456
0.361,-0.270,0.775,-18.799,-16.663,18.677
0.364,-0.255,0.817,-22.278,-18.005,17.944
0.370,-0.242,0.856,-25.330,-18.982,16.907
0.379,-0.226,0.892,-26.794,-18.555,15.747
0.375,-0.208,0.906,-25.391,-16.235,13.489
0.373,-0.198,0.906,-21.179,-12.634,10.620
0.380,-0.198,0.893,-15.381,-9.033,7.385
0.381,-0.202,0.876,-10.254,-5.676,4.272
0.381,-0.212,0.848,-6.958,-3.357,2.075
0.379,-0.224,0.822,-6.592,-2.380,1.282
0.371,-0.229,0.818,-9.827,-2.502,1.831
0.363,-0.223,0.826,-15.198,-3.723,3.052
0.352,-0.218,0.848,-20.630,-5.615,4.089
0.355,-0.213,0.880,-25.330,-7.446,4.639
0.360,-0.216,0.902,-28.015,-8.728,5.188
0.352,-0.219,0.932,-28.625,-9.216,5.188
0.343,-0.212,0.963,-28.015,-8.667,4.272
0.345,-0.208,0.984,-26.306,-6.714,2.625
0.347,-0.214,0.996,-21.667,-3.601,0.671
0.354,-0.229,0.975,-15.869,0.122,-1.648
0.354,-0.253,0.942,-10.010,3.845,-2.686
0.352,-0.261,0.910,-6.714,6.165,-2.441
0.354,-0.249,0.889,-6.287,6.531,-1.160
0.354,-0.240,0.873,-7.080,5.676,0.122
0.356,-0.237,0.871,-9.033,4.211,1.099
0.360,-0.240,0.878,-13.184,1.465,1.892
0.357,-0.246,0.891,-17.029,-0.732,2.686
0.351,-0.253,0.911,-17.700,-1.404,2.869
0.344,-0.252,0.932,-15.381,-1.709,2.869
0.342,-0.241,0.947,-10.864,-1.770,2.930
0.348,-0.234,0.947,-6.348,-1.465,2.380
0.361,-0.224,0.938,-3.540,-1.160,1.221
0.370,-0.217,0.931,-1.770,-0.793,0.671
0.376,-0.218,0.920,-1.709,-0.244,0.732
0.381,-0.218,0.908,-4.028,0.671,1.160
0.380,-0.218,0.891,-8.118,1.892,1.709
0.368,-0.222,0.871,-12.329,3.540,2.075
0.352,-0.228,0.849,-15.198,5.005,2.625
0.339,-0.226,0.831,-16.479,4.761,3.601
0.328,-0.217,0.825,-17.090,2.930,4.272
0.320,-0.213,0.825,-16.663,1.099,4.272
-0.728,0.407,1.703,-17.151,63.904,8.850
-0.836,0.427,1.631,-8.789,59.143,1.526
-0.904,0.431,1.742,6.836,46.204,-7.935
-0.857,0.441,1.850,29.114,33.508,-14.893
-0.888,0.549,2.181,65.247,29.480,-16.663
-0.940,0.533,2.129,125.183,45.227,-15.747
-0.950,0.567,2.081,168.701,69.031,-16.907
-0.877,0.533,1.988,182.556,83.557,-24.597
-0.866,0.627,2.167,175.293,90.210,-32.471
-0.881,0.729,2.207,155.518,104.309,-39.978
-0.861,0.639,2.144,116.089,123.413,-51.331
-0.830,0.445,2.079,44.800,137.329,-65.308
-0.857,0.277,2.063,-39.856,145.691,-77.087
-0.885,0.197,2.132,-100.159,150.146,-87.036
-0.899,0.109,2.241,-114.197,155.151,-97.961
-0.894,-0.013,2.349,-94.666,164.429,-111.328
-0.896,-0.236,2.385,-61.401,179.932,-126.526
-0.953,-0.535,2.281,-23.071,200.500,-140.198
-1.053,-0.837,2.134,13.428,221.497,-147.217
-1.134,-1.078,1.977,39.063,236.206,-147.156
-1.169,-1.295,1.818,49.255,241.516,-139.832
-1.194,-1.476,1.707,41.626,241.943,-127.563
-1.339,-1.631,1.585,25.391,242.981,-111.938
-1.359,-1.778,1.491,6.653,253.784,-96.313
-1.376,-1.900,1.397,-8.362,265.991,-88.867
-1.393,-2.027,1.244,-10.315,267.151,-86.426
-1.411,-2.102,1.093,-1.343,264.404,-84.229
-1.398,-2.111,0.916,18.433,263.916,-80.017
-1.357,-2.085,0.673,44.312,263.489,-73.853
-1.323,-2.028,0.450,71.838,262.146,-61.340
-1.279,-1.980,0.176,94.849,257.507,-41.992
-1.226,-1.867,-0.067,106.140,249.268,-18.066
-1.110,-1.688,-0.236,97.961,235.962,6.775
-1.000,-1.466,-0.344,69.946,212.036,29.358
-0.929,-1.309,-0.443,28.259,182.434,47.607
-0.863,-1.123,-0.512,-20.874,152.954,59.998
-0.783,-0.926,-0.488,-64.880,126.038,65.125
-0.660,-0.753,-0.385,-90.515,102.600,64.209
-0.618,-0.657,-0.269,-93.079,85.022,59.265
-0.575,-0.559,-0.105,-81.726,74.402,51.575
-0.489,-0.457,0.036,-65.002,67.871,44.250
-0.444,-0.369,0.099,-49.255,67.810,38.574
-0.428,-0.326,0.130,-39.246,74.280,33.752
-0.383,-0.297,0.133,-38.940,81.909,29.175
-0.309,-0.267,0.104,-43.762,86.731,24.841
-0.261,-0.242,0.090,-45.349,89.478,20.996
-0.244,-0.234,0.069,-40.955,91.064,19.043
-0.208,-0.225,0.027,-32.959,90.637,19.287
-0.194,-0.219,-0.016,-23.376,87.585,22.522
-0.187,-0.216,-0.053,-17.273,82.153,26.489
-0.181,-0.202,-0.076,-14.832,74.646,29.846
-0.158,-0.197,-0.098,-14.648,66.284,31.677
-0.096,-0.199,-0.055,-14.709,56.030,32.898
-0.021,-0.170,0.012,-18.250,44.495,35.278
0.021,-0.142,0.105,-23.071,35.217,39.368
0.062,-0.095,0.189,-29.724,30.029,43.152
0.097,-0.024,0.261,-36.499,28.259,45.349
0.123,0.043,0.314,-39.246,30.334,43.762
0.146,0.084,0.322,-35.645,35.767,38.330
0.175,0.069,0.299,-28.503,40.710,31.433
0.205,0.023,0.291,-22.278,41.687,26.184
0.232,-0.017,0.320,-20.447,39.185,22.522
0.259,-0.047,0.359,-20.752,36.865,20.508
0.336,-0.060,0.415,-20.386,36.255,19.592
0.366,-0.045,0.457,-17.212,36.560,18.555
0.379,-0.025,0.450,-10.681,38.757,15.808
0.383,-0.056,0.405,-1.587,39.795,11.963
0.372,-0.133,0.417,6.226,38.086,7.080
0.375,-0.199,0.437,11.719,34.119,3.235
0.393,-0.246,0.453,15.747,28.503,1.892
0.399,-0.277,0.482,18.860,22.156,3.052
0.401,-0.290,0.523,20.447,16.418,6.165
0.378,-0.278,0.560,20.813,12.207,10.193
0.373,-0.243,0.581,18.860,12.146,13.794
0.389,-0.223,0.587,15.564,13.428,15.503
0.415,-0.217,0.589,12.268,13.550,14.465
0.440,-0.217,0.577,11.169,14.587,11.475
0.462,-0.234,0.550,11.536,15.930,8.545
0.475,-0.245,0.555,11.780,13.611,7.996
0.492,-0.242,0.570,9.460,9.521,8.179
0.505,-0.244,0.587,5.554,6.470,7.935
0.498,-0.249,0.611,1.526,3.723,7.263
0.483,-0.255,0.642,-1.465,0.671,6.165
0.460,-0.268,0.673,-2.930,-2.136,4.211
0.452,-0.281,0.711,-1.770,-4.333,2.380
0.466,-0.288,0.758,0.488,-6.714,0.732
0.484,-0.290,0.789,3.845,-8.057,-0.183
0.496,-0.292,0.799,6.165,-7.080,-0.488
0.501,-0.299,0.791,5.310,-4.822,-0.671
0.501,-0.301,0.768,1.709,-2.869,-1.221
0.500,-0.303,0.745,-1.892,-2.075,-0.916
0.489,-0.320,0.727,-5.493,-2.441,-1.038
0.481,-0.326,0.712,-9.460,-4.639,-1.160
0.474,-0.326,0.719,-13.184,-8.972,-0.427
0.468,-0.313,0.738,-15.869,-14.160,0.427
0.466,-0.296,0.750,-17.944,-18.616,0.916
0.462,-0.285,0.776,-19.775,-22.217,2.014
0.465,-0.278,0.817,-23.315,-25.940,3.174
0.479,-0.277,0.865,-27.649,-28.259,3.967
0.489,-0.283,0.921,-29.602,-28.503,4.456
0.500,-0.280,0.980,-27.893,-26.672,4.517
0.507,-0.263,1.017,-23.132,-21.912,4.211
0.506,-0.241,1.025,-14.465,-15.076,3.662
0.502,-0.236,0.998,-4.944,-8.362,1.953
0.500,-0.244,0.959,1.282,-3.662,0.427
0.495,-0.250,0.932,2.197,-1.160,-0.122
0.487,-0.254,0.910,-0.977,0.427,0.061
0.469,-0.246,0.884,-6.531,0.916,0.793
0.463,-0.241,0.872,-11.353,0.000,1.526
0.459,-0.241,0.865,-15.259,-1.709,1.343
0.461,-0.252,0.866,-18.616,-3.540,0.977
0.461,-0.264,0.883,-20.813,-5.371,0.854
0.466,-0.272,0.905,-21.179,-6.042,0.854
0.465,-0.268,0.907,-18.738,-4.333,0.366
0.460,-0.262,0.893,-11.963,-1.892,-0.183
0.458,-0.256,0.861,-3.845,0.610,-1.343
0.458,-0.249,0.828,3.235,2.380,-2.380
0.454,-0.242,0.795,7.141,2.869,-2.747
0.452,-0.237,0.769,6.653,2.319,-2.869
-0.587,0.570,1.903,-32.410,20.447,-0.793
-0.677,0.728,2.142,-27.161,19.104,-12.756
-0.717,0.854,2.288,-17.090,29.419,-33.020
-0.732,0.886,2.384,5.127,52.002,-63.293
-0.772,0.800,2.416,36.865,79.712,-96.802
-0.810,0.650,2.365,72.693,108.459,-126.038
-0.824,0.452,2.231,106.201,133.667,-145.691
-0.840,0.268,2.113,130.920,148.865,-152.344
-0.822,0.085,2.008,138.184,150.452,-146.973
-0.735,-0.083,1.915,126.526,142.944,-131.226
-0.688,-0.135,1.948,93.872,129.456,-109.070
-0.649,-0.133,2.076,44.861,114.014,-83.923
-0.609,-0.042,2.299,-8.118,98.572,-62.622
-0.599,0.047,2.590,-56.519,88.501,-48.218
-0.669,0.149,2.889,-99.548,88.013,-45.532
-0.731,0.138,3.067,-127.197,106.384,-62.012
-0.864,0.034,3.110,-128.967,139.221,-93.750
-1.055,-0.186,3.054,-102.173,178.772,-129.517
-1.257,-0.586,2.869,-47.852,213.806,-161.255
-1.432,-1.018,2.658,12.512,240.173,-181.519
-1.546,-1.435,2.391,65.918,258.301,-185.913
-1.615,-1.740,2.102,108.826,274.719,-171.326
-1.747,-1.954,1.676,135.315,291.443,-138.428
-1.750,-2.202,1.224,136.536,311.218,-90.210
-1.680,-2.298,0.799,108.704,325.684,-50.720
-1.555,-2.326,0.425,72.144,312.195,-21.973
-1.495,-2.244,0.217,35.461,268.005,-1.892
-1.469,-2.065,0.170,11.719,217.041,15.442
-1.401,-1.861,0.177,2.625,172.363,27.649
-1.268,-1.711,0.192,4.639,142.578,36.255
-1.160,-1.597,0.249,9.949,124.390,45.166
-1.058,-1.497,0.381,10.803,115.601,55.847
-0.939,-1.301,0.469,3.296,118.042,67.871
-0.882,-1.073,0.470,-8.606,130.981,80.322
-0.853,-0.865,0.330,-20.569,152.893,87.402
-0.810,-0.690,0.120,-29.114,174.805,85.327
-0.785,-0.553,-0.113,-33.569,185.852,78.064
-0.784,-0.422,-0.302,-35.828,186.401,70.068
-0.759,-0.301,-0.511,-38.330,182.190,58.716
-0.712,-0.185,-0.654,-39.368,173.279,44.861
-0.671,-0.087,-0.746,-40.222,157.837,31.250
-0.616,-0.054,-0.781,-42.847,135.681,19.714
-0.555,-0.076,-0.730,-52.673,105.469,9.888
-0.498,-0.114,-0.606,-69.641,73.975,2.197
-0.425,-0.149,-0.456,-88.562,47.180,-2.808
-0.343,-0.177,-0.276,-102.722,27.527,-5.493
-0.247,-0.227,-0.093,-111.023,15.503,-5.310
-0.155,-0.232,0.045,-114.868,11.902,-2.258
-0.100,-0.225,0.156,-113.464,16.541,2.014
-0.066,-0.203,0.208,-104.492,28.198,6.104
-0.049,-0.169,0.205,-88.806,42.114,8.057
-0.038,-0.145,0.201,-68.298,52.063,8.484
-0.024,-0.115,0.200,-48.218,55.847,8.240
0.012,-0.072,0.212,-32.532,55.359,7.141
0.049,-0.044,0.232,-21.362,54.382,4.211
0.088,-0.043,0.227,-14.343,53.772,-0.061
0.123,-0.076,0.207,-12.329,53.467,-4.944
0.149,-0.116,0.182,-12.146,52.307,-8.911
0.190,-0.170,0.174,-12.146,48.279,-10.498
0.232,-0.227,0.222,-11.658,41.748,-9.644
0.273,-0.261,0.279,-12.756,36.804,-6.531
0.306,-0.275,0.319,-11.902,34.973,-2.075
0.351,-0.258,0.328,-8.545,36.133,2.197
0.377,-0.227,0.317,-0.488,37.903,5.981
0.394,-0.195,0.310,10.986,39.185,7.080
0.404,-0.189,0.317,23.315,38.086,8.301
0.416,-0.174,0.319,31.128,34.973,9.766
0.429,-0.154,0.332,34.790,30.579,10.803
0.436,-0.148,0.338,35.828,24.658,12.024
0.432,-0.151,0.365,33.325,16.479,12.451
0.444,-0.158,0.424,26.245,5.676,12.085
0.470,-0.168,0.524,14.282,-5.859,11.475
0.490,-0.173,0.639,-0.854,-15.381,11.108
0.507,-0.177,0.729,-14.160,-20.203,10.986
0.529,-0.182,0.786,-23.254,-20.020,8.911
0.537,-0.188,0.836,-25.085,-14.709,5.127
0.545,-0.204,0.850,-17.517,-5.981,0.366
0.519,-0.224,0.844,-3.235,2.563,-3.540
0.492,-0.259,0.807,13.733,10.376,-6.470
0.475,-0.292,0.759,27.771,15.381,-8.301
0.466,-0.318,0.718,34.180,16.235,-8.911
0.467,-0.325,0.697,34.363,13.367,-7.568
0.466,-0.322,0.699,29.785,9.033,-3.967
0.468,-0.301,0.709,20.813,4.883,0.916
0.473,-0.271,0.724,7.507,1.343,4.333
0.478,-0.254,0.757,-3.845,-2.075,5.676
0.479,-0.247,0.775,-10.925,-4.211,5.127
0.482,-0.263,0.786,-12.512,-5.127,3.601
0.482,-0.281,0.793,-10.498,-5.981,2.075
0.481,-0.298,0.795,-7.751,-7.446,1.038
0.475,-0.312,0.795,-5.615,-9.338,1.160
0.478,-0.324,0.807,-3.784,-11.230,2.686
0.476,-0.318,0.826,-3.662,-13.123,4.822
0.474,-0.298,0.849,-3.784,-15.198,7.202
0.472,-0.281,0.882,-3.357,-15.991,8.484
0.472,-0.273,0.902,-2.258,-15.076,8.789
0.469,-0.262,0.913,-1.404,-13.306,8.911
0.477,-0.247,0.923,0.366,-12.085,9.338
0.484,-0.228,0.937,2.136,-10.376,8.972
0.488,-0.217,0.937,4.761,-7.202,7.874
0.485,-0.222,0.923,7.385,-3.601,6.226
0.479,-0.223,0.911,8.362,-1.526,5.005
0.469,-0.222,0.890,7.446,-0.549,3.845
0.468,-0.233,0.876,6.897,-0.183,2.625
0.464,-0.243,0.862,5.188,-0.244,1.770
0.461,-0.254,0.849,3.296,-0.793,1.709
