aX,aY,aZ,gX,gY,gZ
0.921,-2.127,-1.036,143.982,-15.259,357.361
1.049,-2.295,-1.071,143.250,-19.043,355.225
1.108,-2.469,-1.047,135.559,-18.433,352.722
1.088,-2.567,-0.947,118.835,-9.216,346.741
1.045,-2.607,-0.803,98.328,10.193,337.158
1.006,-2.647,-0.662,79.651,38.147,325.134
0.948,-2.781,-0.573,61.951,69.031,311.890
0.798,-2.907,-0.356,46.875,91.370,297.363
0.678,-3.068,-0.096,35.461,107.178,278.442
0.696,-3.243,0.101,31.250,118.103,252.869
0.628,-3.426,-0.095,15.625,130.127,206.970
0.620,-3.093,0.139,-4.150,95.215,153.748
0.591,-2.650,0.149,-12.878,44.128,80.139
0.587,-2.214,-0.014,-23.071,-5.676,3.113
0.571,-1.743,-0.169,-27.161,-48.462,-48.035
0.499,-1.359,-0.344,-17.334,-77.454,-70.129
0.457,-1.099,-0.535,-0.671,-90.271,-68.787
0.404,-0.978,-0.629,18.066,-89.783,-48.889
0.335,-1.027,-0.668,35.339,-77.942,-21.301
0.267,-1.105,-0.603,45.837,-57.678,7.385
0.227,-1.202,-0.498,47.546,-33.264,29.602
0.228,-1.339,-0.398,44.556,-7.507,37.781
0.264,-1.455,-0.331,38.574,15.869,33.752
0.313,-1.493,-0.251,30.029,33.386,21.851
0.365,-1.473,-0.229,21.973,41.199,5.371
0.430,-1.396,-0.258,13.245,40.039,-11.597
0.462,-1.277,-0.299,5.432,29.602,-25.146
0.467,-1.144,-0.344,0.366,13.611,-32.104
0.443,-1.031,-0.374,-2.197,-3.479,-32.471
0.416,-0.971,-0.405,-4.150,-17.029,-27.527
0.383,-0.943,-0.416,-6.348,-25.513,-19.470
0.347,-0.949,-0.422,-8.850,-28.198,-10.254
0.309,-0.952,-0.421,-11.475,-25.452,-1.953
0.277,-0.945,-0.409,-13.855,-18.982,4.150
0.270,-0.954,-0.397,-15.442,-9.949,5.920
0.276,-0.954,-0.384,-15.747,-0.854,3.784
0.295,-0.935,-0.360,-15.015,6.958,-0.977
0.327,-0.917,-0.341,-12.573,12.390,-6.958
0.360,-0.904,-0.335,-8.484,15.564,-12.634
0.395,-0.896,-0.326,-3.723,16.296,-16.357
0.406,-0.886,-0.312,1.221,14.771,-17.883
0.406,-0.872,-0.303,5.615,11.597,-17.883
0.403,-0.878,-0.294,8.667,7.080,-18.005
0.395,-0.895,-0.292,10.071,2.197,-16.724
0.389,-0.915,-0.300,9.705,-1.770,-14.099
0.361,-0.923,-0.295,7.263,-5.127,-11.597
0.337,-0.935,-0.297,3.479,-8.118,-10.132
0.330,-0.941,-0.307,0.000,-9.766,-9.155
0.318,-0.923,-0.321,-4.272,-9.644,-8.301
0.301,-0.895,-0.323,-7.935,-8.362,-7.690
0.299,-0.875,-0.339,-9.705,-6.042,-7.385
0.299,-0.865,-0.345,-9.644,-3.601,-7.812
0.311,-0.870,-0.354,-8.057,-1.343,-8.728
0.307,-0.885,-0.348,-5.310,-0.122,-9.460
0.304,-0.888,-0.336,-2.930,0.732,-10.254
0.312,-0.883,-0.327,-2.441,1.770,-11.841
0.322,-0.872,-0.321,-3.357,2.686,-13.489
0.340,-0.870,-0.331,-4.639,3.235,-13.733
0.355,-0.865,-0.330,-4.822,2.991,-11.963
0.340,-0.855,-0.317,-5.188,1.953,-9.827
0.326,-0.843,-0.312,-5.676,0.793,-8.423
0.321,-0.837,-0.315,-5.615,-0.366,-7.812
0.319,-0.838,-0.317,-4.822,-1.160,-7.324
0.324,-0.827,-0.322,-4.700,-1.404,-6.714
0.322,-0.828,-0.328,-4.700,-1.221,-6.226
0.322,-0.837,-0.333,-3.540,-1.770,-4.578
0.314,-0.844,-0.332,-2.014,-2.014,-3.296
0.301,-0.848,-0.325,-1.099,-2.014,-3.113
0.307,-0.863,-0.331,-0.916,-1.465,-3.479
0.304,-0.868,-0.334,-0.854,-0.854,-3.784
0.306,-0.865,-0.327,-1.221,-0.671,-4.211
0.316,-0.867,-0.336,-1.404,-0.244,-4.578
0.320,-0.866,-0.337,-1.221,0.305,-4.517
0.321,-0.863,-0.334,-1.099,0.549,-4.456
0.317,-0.861,-0.331,-1.160,-0.183,-4.761
0.317,-0.864,-0.328,-1.038,-0.793,-4.517
0.323,-0.873,-0.332,-0.854,-1.038,-3.906
0.321,-0.881,-0.334,-0.183,-1.648,-3.052
0.314,-0.887,-0.332,0.610,-2.258,-1.831
0.313,-0.897,-0.332,1.038,-2.258,-0.610
0.308,-0.911,-0.326,0.916,-1.892,-0.366
0.299,-0.919,-0.323,-0.061,-1.343,-0.549
0.303,-0.925,-0.330,-0.793,-0.671,-1.038
0.304,-0.925,-0.333,-1.648,-0.610,-1.831
0.298,-0.919,-0.330,-2.136,-1.343,-2.319
0.307,-0.926,-0.345,-2.441,-1.831,-2.563
0.304,-0.928,-0.350,-2.441,-2.563,-2.563
0.293,-0.915,-0.346,-2.380,-3.052,-2.502
0.294,-0.911,-0.347,-3.052,-2.991,-2.869
0.298,-0.904,-0.353,-3.906,-2.502,-3.174
0.300,-0.896,-0.359,-3.845,-2.197,-3.113
0.301,-0.891,-0.364,-3.296,-2.258,-2.808
0.298,-0.896,-0.364,-2.258,-2.747,-2.014
0.288,-0.892,-0.358,-0.610,-2.625,-1.038
0.289,-0.898,-0.354,0.610,-1.770,-0.732
0.293,-0.907,-0.354,1.465,-0.488,-1.282
0.299,-0.916,-0.351,1.831,0.183,-1.709
0.301,-0.928,-0.351,2.197,0.183,-1.892
0.297,-0.934,-0.342,2.319,0.305,-1.892
0.292,-0.943,-0.338,2.258,0.671,-1.892
0.298,-0.942,-0.345,1.831,1.465,-2.319
0.298,-0.936,-0.340,1.526,1.648,-2.747
0.300,-0.939,-0.334,1.343,1.465,-2.930
0.300,-0.943,-0.334,1.282,1.709,-2.319
0.303,-0.940,-0.340,1.404,2.136,-1.648
0.303,-0.941,-0.337,0.977,2.014,-1.404
0.300,-0.942,-0.336,0.732,1.709,-1.282
0.294,-0.942,-0.333,1.038,1.404,-1.099
0.291,-0.938,-0.330,1.160,0.977,-1.160
0.297,-0.942,-0.336,0.977,1.160,-1.648
0.292,-0.943,-0.329,0.854,1.282,-2.319
0.291,-0.942,-0.330,0.916,1.404,-2.014
0.291,-0.941,-0.335,1.343,1.526,-2.014
0.292,-0.941,-0.331,1.648,1.099,-2.686
0.287,-0.946,-0.330,1.526,0.732,-3.113
0.288,-0.943,-0.335,1.221,0.916,-3.296
0.284,-0.939,-0.333,0.549,0.854,-3.906
0.283,-0.929,-0.335,-0.549,0.977,-4.578
0.281,-0.918,-0.335,-1.465,1.282,-5.127
1.537,-1.942,-1.099,125.122,-32.593,451.782
1.545,-2.117,-1.119,149.109,-37.659,439.209
1.510,-2.431,-1.090,165.955,-47.607,414.673
1.401,-2.634,-1.060,164.795,-50.232,388.611
1.285,-2.707,-1.016,147.095,-46.021,365.906
1.171,-2.725,-0.985,121.826,-36.499,345.154
1.079,-2.655,-0.918,91.064,-23.743,328.735
1.081,-2.549,-0.894,55.664,-6.409,316.772
0.781,-2.491,-0.825,26.184,13.123,305.298
0.882,-2.304,-0.879,5.615,37.537,291.138
0.718,-2.177,-0.944,-11.719,68.298,271.606
0.767,-2.136,-0.663,-16.113,65.857,242.187
0.806,-2.236,-0.537,-7.324,58.594,203.430
0.824,-2.166,-0.413,-13.123,55.969,172.791
0.844,-2.112,-0.301,-19.104,45.349,151.794
0.792,-2.125,-0.347,-20.508,32.349,134.644
0.760,-2.020,-0.383,-29.236,22.034,120.850
0.704,-1.867,-0.378,-36.621,10.681,109.070
0.641,-1.751,-0.388,-37.781,3.845,96.741
0.600,-1.636,-0.402,-35.400,0.366,82.275
0.596,-1.529,-0.417,-30.029,-0.366,67.078
0.555,-1.409,-0.388,-21.790,1.892,55.664
0.516,-1.351,-0.359,-8.057,4.333,44.434
0.499,-1.302,-0.340,2.502,9.277,31.799
0.509,-1.263,-0.323,8.911,13.916,20.874
0.525,-1.254,-0.299,13.611,17.151,13.000
0.540,-1.248,-0.268,14.526,19.043,7.568
0.562,-1.237,-0.234,9.583,19.104,3.174
0.591,-1.207,-0.215,1.343,18.127,0.793
0.621,-1.146,-0.225,-7.080,16.296,-0.183
0.646,-1.092,-0.244,-13.977,12.634,1.160
0.643,-1.024,-0.266,-17.334,7.874,5.066
0.620,-0.962,-0.285,-17.517,2.258,7.629
0.595,-0.928,-0.306,-14.954,-3.845,6.653
0.568,-0.900,-0.323,-10.315,-9.094,3.174
0.550,-0.884,-0.344,-4.761,-12.573,-0.793
0.537,-0.866,-0.367,0.854,-14.099,-3.845
0.523,-0.859,-0.376,5.005,-14.648,-6.897
0.517,-0.845,-0.377,7.385,-13.916,-9.216
0.516,-0.830,-0.385,7.324,-11.963,-10.742
0.526,-0.809,-0.390,5.737,-9.521,-12.024
0.537,-0.784,-0.391,3.235,-7.446,-12.390
0.550,-0.761,-0.395,0.793,-5.676,-11.597
0.550,-0.739,-0.396,-0.671,-4.089,-10.193
0.555,-0.719,-0.406,-1.526,-3.174,-8.667
0.559,-0.716,-0.407,-1.404,-3.357,-7.080
0.552,-0.718,-0.408,-0.671,-3.967,-5.432
0.545,-0.714,-0.406,0.366,-4.517,-4.333
0.544,-0.725,-0.406,1.404,-4.822,-3.967
0.540,-0.723,-0.410,1.953,-5.005,-3.357
0.539,-0.735,-0.407,1.648,-5.066,-2.808
0.531,-0.742,-0.395,1.038,-5.188,-1.892
0.520,-0.738,-0.385,-0.610,-5.066,-0.916
0.520,-0.741,-0.381,-2.502,-4.578,-0.732
0.518,-0.745,-0.383,-3.662,-3.784,-1.160
0.519,-0.741,-0.378,-3.601,-3.296,-1.648
0.517,-0.743,-0.378,-3.296,-2.686,-2.747
0.522,-0.740,-0.378,-3.357,-2.380,-3.357
0.526,-0.738,-0.384,-3.967,-2.136,-3.418
0.526,-0.737,-0.384,-4.456,-1.526,-2.747
0.525,-0.743,-0.387,-4.639,-1.038,-1.465
0.532,-0.749,-0.386,-4.517,-0.916,-0.854
0.529,-0.758,-0.369,-3.662,-0.610,-0.610
0.524,-0.764,-0.347,-3.174,0.305,-0.549
0.530,-0.766,-0.339,-3.235,1.526,-1.038
0.539,-0.767,-0.344,-3.906,1.831,-1.892
0.548,-0.776,-0.344,-4.272,0.427,-2.502
0.539,-0.781,-0.339,-4.028,-1.465,-2.502
0.530,-0.784,-0.336,-3.723,-2.869,-2.625
0.528,-0.781,-0.343,-3.662,-3.967,-3.357
0.532,-0.774,-0.350,-4.272,-4.272,-4.089
0.533,-0.762,-0.355,-4.211,-4.089,-4.089
0.529,-0.753,-0.355,-3.784,-3.174,-2.991
0.524,-0.740,-0.356,-3.601,-1.404,-1.648
0.530,-0.742,-0.359,-3.601,0.305,-0.366
0.532,-0.755,-0.355,-2.747,1.526,0.732
0.532,-0.769,-0.341,-1.526,2.197,1.770
0.538,-0.789,-0.335,-0.610,2.747,2.563
0.541,-0.797,-0.324,0.061,3.113,3.174
0.547,-0.809,-0.315,0.244,3.296,2.930
0.550,-0.814,-0.309,-0.061,2.686,1.953
0.553,-0.817,-0.307,-0.366,1.160,0.854
0.549,-0.817,-0.305,-0.854,-0.549,-0.061
0.550,-0.814,-0.314,-1.770,-1.587,-0.732
0.550,-0.821,-0.319,-2.686,-2.686,-1.160
0.539,-0.822,-0.323,-2.930,-2.808,-0.854
0.533,-0.821,-0.323,-3.479,-2.258,-0.671
0.532,-0.821,-0.328,-3.967,-1.343,-1.404
0.535,-0.817,-0.331,-4.089,-0.610,-2.502
0.539,-0.814,-0.337,-3.540,-0.671,-3.052
0.545,-0.812,-0.339,-2.686,-1.038,-3.235
0.544,-0.820,-0.333,-1.953,-1.709,-3.296
0.540,-0.827,-0.328,-1.282,-2.014,-2.991
0.545,-0.828,-0.330,-1.221,-2.197,-3.052
0.550,-0.825,-0.335,-1.709,-2.563,-3.174
0.544,-0.812,-0.337,-2.197,-3.052,-2.930
0.542,-0.805,-0.340,-2.563,-3.540,-2.075
0.537,-0.798,-0.343,-2.747,-3.601,-1.343
0.535,-0.797,-0.352,-2.808,-3.174,-0.488
0.536,-0.795,-0.361,-2.441,-2.319,-0.366
0.533,-0.793,-0.359,-1.648,-1.892,-0.732
0.530,-0.793,-0.356,-0.244,-1.465,-0.916
0.530,-0.796,-0.357,1.160,-0.793,-1.038
0.533,-0.797,-0.353,1.831,-0.061,-1.587
0.539,-0.810,-0.354,1.892,0.488,-1.831
0.535,-0.810,-0.345,1.465,0.671,-1.831
0.536,-0.811,-0.339,1.099,0.610,-2.258
0.544,-0.816,-0.340,0.183,-0.061,-2.930
0.538,-0.818,-0.333,-0.732,-0.793,-2.991
0.533,-0.824,-0.331,-1.160,-1.160,-2.441
0.533,-0.833,-0.334,-1.526,-0.854,-2.136
0.529,-0.834,-0.329,-1.587,-0.366,-2.563
0.531,-0.839,-0.322,-1.221,0.183,-3.296
0.533,-0.835,-0.321,-1.038,0.305,-4.822
0.536,-0.822,-0.317,-1.709,-0.244,-6.836
0.549,-0.815,-0.327,-2.441,-0.977,-7.935
0.550,-0.792,-0.333,-3.601,-1.892,-7.507
0.556,-0.776,-0.346,-4.395,-3.174,-6.165
0.550,-0.769,-0.352,-4.333,-3.845,-4.028
1.052,-1.926,-0.891,131.958,-59.509,398.926
1.036,-1.929,-0.905,131.104,-66.833,388.000
1.047,-1.958,-0.930,123.535,-66.284,375.305
1.070,-1.970,-0.998,112.366,-54.749,365.723
1.096,-1.938,-1.062,103.516,-37.964,357.910
1.107,-1.948,-1.097,96.863,-20.813,345.886
1.106,-1.995,-1.130,91.003,-4.944,329.834
1.084,-2.021,-1.057,86.365,8.667,312.195
1.011,-2.028,-0.922,77.698,24.902,293.884
0.939,-2.032,-0.792,63.538,44.739,274.292
0.929,-2.027,-0.678,46.204,63.171,254.395
0.971,-2.014,-0.590,29.663,75.928,235.962
0.881,-2.037,-0.496,17.334,79.529,216.736
0.854,-2.023,-0.464,6.836,76.050,197.083
0.747,-1.954,-0.367,-5.188,68.787,175.354
0.778,-1.945,-0.296,-10.498,46.814,149.841
0.709,-1.893,-0.245,-12.756,25.146,122.498
0.682,-1.724,-0.228,-18.127,8.057,101.440
0.656,-1.580,-0.306,-20.813,-6.409,82.947
0.608,-1.418,-0.368,-25.146,-16.968,68.420
0.543,-1.247,-0.434,-29.663,-19.531,62.317
0.498,-1.115,-0.479,-31.372,-15.625,60.425
0.499,-1.029,-0.524,-29.053,-7.629,58.716
0.503,-0.991,-0.490,-22.156,1.099,56.824
0.503,-1.001,-0.410,-10.986,10.925,55.359
0.543,-1.050,-0.341,1.160,21.362,52.246
0.593,-1.132,-0.273,12.268,28.870,45.837
0.644,-1.204,-0.211,19.592,31.677,37.354
0.677,-1.247,-0.168,22.217,29.785,29.358
0.696,-1.262,-0.151,20.203,23.621,21.973
0.705,-1.240,-0.160,13.550,13.794,16.357
0.689,-1.196,-0.187,3.784,2.869,12.878
0.655,-1.132,-0.236,-6.958,-7.690,11.536
0.604,-1.041,-0.288,-16.663,-15.991,11.902
0.554,-0.972,-0.335,-22.949,-21.362,12.329
0.521,-0.913,-0.372,-25.513,-23.437,11.841
0.488,-0.870,-0.395,-24.536,-22.217,11.475
0.464,-0.840,-0.414,-20.569,-18.738,10.620
0.454,-0.824,-0.421,-14.343,-13.977,8.179
0.457,-0.824,-0.418,-6.897,-9.155,4.639
0.477,-0.828,-0.405,0.244,-4.456,1.099
0.499,-0.833,-0.389,4.272,0.061,-1.892
0.518,-0.831,-0.377,5.859,3.601,-3.235
0.551,-0.840,-0.368,5.737,5.676,-4.150
0.574,-0.847,-0.362,4.333,6.470,-4.089
0.579,-0.845,-0.351,2.197,6.042,-2.991
0.586,-0.850,-0.351,0.000,4.517,-2.075
0.582,-0.837,-0.350,-1.526,2.075,-1.892
0.578,-0.826,-0.356,-1.953,-1.343,-2.380
0.568,-0.817,-0.367,-2.014,-4.272,-2.747
0.553,-0.800,-0.377,-2.075,-6.409,-2.991
0.547,-0.798,-0.395,-2.380,-7.446,-2.869
0.535,-0.791,-0.400,-2.258,-7.263,-1.953
0.519,-0.790,-0.400,-1.831,-5.432,-0.854
0.513,-0.798,-0.393,-1.526,-2.625,-1.221
0.516,-0.806,-0.381,-1.160,0.488,-2.441
0.530,-0.813,-0.377,-0.854,2.747,-4.028
0.541,-0.811,-0.368,-1.221,3.540,-5.493
0.544,-0.795,-0.364,-2.197,3.113,-5.859
0.550,-0.780,-0.362,-3.357,1.892,-5.249
0.548,-0.762,-0.363,-4.517,0.549,-4.028
0.548,-0.757,-0.365,-5.432,-1.160,-3.052
0.536,-0.754,-0.366,-5.554,-1.953,-1.770
0.526,-0.758,-0.368,-5.249,-2.014,-0.305
0.520,-0.768,-0.370,-4.456,-1.770,-0.244
0.517,-0.783,-0.363,-3.357,-1.221,-1.343
0.506,-0.780,-0.349,-2.197,-0.061,-2.380
0.509,-0.782,-0.346,-1.831,1.465,-3.296
0.521,-0.783,-0.349,-2.380,2.441,-4.639
0.535,-0.780,-0.350,-3.052,3.052,-5.310
0.540,-0.773,-0.349,-3.784,3.357,-5.371
0.541,-0.768,-0.345,-3.967,2.930,-4.395
0.547,-0.771,-0.339,-3.906,2.075,-3.418
0.555,-0.783,-0.337,-4.578,1.526,-2.808
0.556,-0.793,-0.327,-5.859,1.099,-1.770
0.558,-0.796,-0.325,-7.019,0.610,-0.427
0.556,-0.801,-0.329,-7.812,0.305,-0.122
0.554,-0.805,-0.326,-7.629,-0.793,-0.671
0.547,-0.805,-0.323,-6.592,-2.075,-1.526
0.544,-0.806,-0.325,-5.554,-3.235,-2.625
0.538,-0.805,-0.337,-4.944,-4.395,-3.418
0.534,-0.795,-0.346,-4.883,-5.310,-4.272
0.534,-0.789,-0.357,-5.371,-5.432,-4.761
0.526,-0.790,-0.362,-5.981,-4.761,-4.333
0.512,-0.795,-0.360,-6.958,-3.174,-3.784
0.503,-0.803,-0.355,-8.789,-0.244,-3.967
0.512,-0.813,-0.358,-11.108,3.296,-4.517
0.521,-0.811,-0.360,-12.939,7.202,-4.272
0.524,-0.797,-0.356,-13.489,10.254,-4.028
0.535,-0.789,-0.360,-12.268,11.597,-4.822
0.543,-0.790,-0.356,-9.766,10.986,-6.226
0.544,-0.791,-0.348,-6.836,9.521,-7.080
0.542,-0.792,-0.348,-4.211,8.301,-7.202
0.545,-0.796,-0.351,-2.502,6.775,-6.958
0.526,-0.805,-0.349,-2.197,5.188,-6.104
0.527,-0.815,-0.343,-2.930,4.272,-4.700
0.530,-0.823,-0.346,-3.235,4.089,-3.357
0.523,-0.827,-0.342,-4.211,3.967,-2.930
0.522,-0.829,-0.337,-4.822,3.601,-3.296
0.531,-0.833,-0.337,-5.432,2.869,-4.028
0.535,-0.831,-0.334,-5.981,2.380,-4.211
0.533,-0.821,-0.333,-6.104,2.502,-3.662
0.526,-0.809,-0.335,-5.859,2.441,-3.357
0.522,-0.800,-0.336,-4.700,1.892,-3.784
0.521,-0.804,-0.341,-3.052,1.160,-4.333
0.519,-0.806,-0.341,-1.343,0.610,-4.639
0.512,-0.811,-0.337,0.061,0.122,-4.089
0.509,-0.819,-0.339,0.549,0.000,-3.540
0.503,-0.822,-0.337,0.122,0.427,-3.296
0.502,-0.824,-0.336,-0.977,0.732,-3.540
0.506,-0.819,-0.336,-2.014,1.221,-4.028
0.517,-0.811,-0.344,-2.686,1.221,-4.883
0.524,-0.805,-0.344,-2.747,0.977,-5.249
0.518,-0.794,-0.336,-2.075,0.366,-4.578
0.513,-0.788,-0.335,-1.648,-0.122,-3.967
0.515,-0.785,-0.340,-1.038,-0.671,-3.967
0.518,-0.787,-0.344,-0.549,-0.916,-3.479
0.508,-0.790,-0.341,0.122,-0.854,-2.563
0.502,-0.796,-0.334,0.793,-0.427,-1.648
1.790,-1.744,-0.880,149.353,84.595,501.770
2.068,-1.975,-1.002,147.156,103.027,490.662
2.394,-2.134,-1.278,140.259,111.755,478.271
2.722,-2.257,-1.533,140.747,108.215,471.313
2.950,-2.493,-1.672,159.973,95.459,466.980
2.933,-2.787,-1.646,190.796,77.881,459.045
2.673,-3.152,-1.381,213.806,62.439,446.960
2.188,-3.463,-0.814,210.327,59.021,429.382
1.702,-3.739,-0.209,172.363,83.435,405.090
1.487,-4.000,0.354,104.553,131.104,377.686
1.241,-4.000,0.974,28.992,187.744,349.121
1.217,-4.000,0.866,-40.283,243.347,318.665
1.073,-4.000,0.706,-85.938,231.567,236.206
0.957,-3.144,0.868,-121.399,103.027,67.932
1.078,-2.285,0.349,-153.198,-7.080,-72.632
1.211,-1.459,-0.309,-151.611,-73.364,-107.605
0.979,-0.934,-0.593,-103.210,-131.958,-75.745
0.562,-0.699,-0.639,-42.847,-170.959,-22.278
0.314,-0.640,-0.705,-3.662,-178.650,23.987
0.175,-0.813,-0.808,20.752,-163.574,51.086
0.036,-1.083,-0.814,33.997,-133.911,62.500
-0.094,-1.255,-0.677,33.752,-84.167,67.993
-0.116,-1.322,-0.485,29.907,-17.273,67.322
0.005,-1.417,-0.313,31.860,51.331,55.603
0.287,-1.486,-0.192,39.673,108.643,33.997
0.587,-1.469,-0.087,53.162,141.418,5.066
0.839,-1.409,-0.015,65.491,145.752,-29.907
0.973,-1.291,0.007,72.876,121.643,-63.110
0.984,-1.154,-0.001,79.041,77.515,-84.106
0.931,-1.064,-0.039,82.275,24.658,-87.952
0.862,-1.005,-0.116,76.294,-21.606,-76.111
0.744,-0.950,-0.189,59.265,-54.626,-53.162
0.609,-0.911,-0.285,34.729,-72.266,-26.306
0.523,-0.884,-0.370,8.972,-76.477,-1.770
0.425,-0.847,-0.430,-13.672,-70.984,15.808
0.353,-0.822,-0.471,-29.358,-58.044,23.499
0.344,-0.806,-0.486,-36.438,-40.588,23.193
0.362,-0.779,-0.485,-36.499,-22.278,17.944
0.389,-0.752,-0.451,-29.724,-6.592,9.766
0.434,-0.736,-0.416,-18.433,4.395,0.061
0.469,-0.734,-0.369,-5.554,9.766,-9.155
0.506,-0.749,-0.339,5.371,9.705,-18.250
0.529,-0.765,-0.328,12.634,5.798,-25.208
0.550,-0.775,-0.329,16.724,-0.366,-26.978
0.543,-0.786,-0.333,17.639,-6.714,-23.499
0.514,-0.795,-0.334,15.869,-12.573,-16.541
0.485,-0.801,-0.349,10.620,-16.907,-9.033
0.462,-0.801,-0.368,3.784,-18.311,-3.174
0.451,-0.795,-0.385,-2.380,-17.639,1.587
0.427,-0.781,-0.390,-5.676,-15.198,5.249
0.419,-0.771,-0.398,-6.836,-11.047,6.714
0.422,-0.771,-0.401,-4.944,-6.104,6.348
0.433,-0.785,-0.394,-1.160,-1.892,4.089
0.450,-0.808,-0.374,2.686,1.709,1.648
0.463,-0.829,-0.349,5.432,3.967,-0.488
0.472,-0.848,-0.329,6.409,5.249,-2.319
0.478,-0.861,-0.309,6.409,5.371,-4.333
0.495,-0.879,-0.309,6.042,4.089,-6.531
0.500,-0.907,-0.298,5.432,1.526,-8.057
0.505,-0.915,-0.303,3.662,-0.732,-8.545
0.515,-0.916,-0.310,1.770,-2.319,-8.301
0.501,-0.900,-0.301,0.427,-3.967,-5.981
0.486,-0.877,-0.300,-0.854,-4.089,-2.747
0.472,-0.860,-0.305,-2.380,-3.540,-0.488
0.471,-0.854,-0.321,-2.747,-2.502,0.305
0.471,-0.853,-0.330,-1.831,-1.648,0.916
0.461,-0.858,-0.316,-0.610,-1.343,0.977
0.455,-0.870,-0.307,0.366,-0.732,0.610
0.452,-0.867,-0.297,0.244,0.427,-0.549
0.456,-0.869,-0.286,-1.038,1.282,-2.502
0.467,-0.873,-0.291,-3.113,1.587,-4.272
0.470,-0.864,-0.291,-5.005,0.732,-5.127
0.467,-0.858,-0.291,-6.226,-0.488,-5.859
0.466,-0.850,-0.299,-6.714,-1.221,-6.287
0.479,-0.838,-0.312,-6.226,-1.587,-5.798
0.479,-0.818,-0.310,-4.517,-1.953,-3.845
0.468,-0.813,-0.305,-2.625,-1.892,-2.136
0.466,-0.821,-0.301,-1.038,-1.282,-0.305
0.470,-0.835,-0.304,0.000,0.000,0.610
0.473,-0.846,-0.293,0.549,1.160,0.977
0.475,-0.854,-0.284,0.366,2.930,1.099
0.482,-0.860,-0.277,0.000,4.395,1.221
0.484,-0.871,-0.264,-0.427,5.005,0.671
0.489,-0.881,-0.260,-0.549,5.005,-0.183
0.490,-0.883,-0.261,-0.977,4.395,-1.770
0.494,-0.881,-0.259,-1.465,2.747,-3.906
0.492,-0.874,-0.259,-1.648,0.610,-5.127
0.493,-0.870,-0.269,-1.770,-1.160,-5.615
0.489,-0.865,-0.277,-2.258,-2.869,-5.005
0.479,-0.864,-0.282,-2.869,-4.089,-3.784
0.473,-0.862,-0.291,-3.052,-4.639,-2.930
0.471,-0.865,-0.302,-3.174,-4.700,-2.258
0.464,-0.869,-0.301,-2.930,-4.639,-1.160
0.452,-0.868,-0.301,-2.380,-4.089,0.061
0.454,-0.870,-0.306,-2.319,-2.808,0.061
0.458,-0.872,-0.306,-2.625,-1.709,-0.732
0.459,-0.874,-0.304,-2.319,-1.160,-1.160
0.457,-0.872,-0.305,-1.892,-0.854,-1.587
0.461,-0.870,-0.306,-1.709,-0.488,-2.502
0.464,-0.869,-0.305,-1.526,-0.732,-3.357
0.467,-0.867,-0.303,-1.831,-1.221,-4.211
0.465,-0.863,-0.302,-1.953,-1.465,-4.456
0.460,-0.867,-0.298,-2.136,-1.465,-4.089
0.455,-0.875,-0.300,-2.136,-1.343,-3.723
0.454,-0.883,-0.301,-1.770,-0.549,-3.235
0.452,-0.887,-0.301,-1.099,0.732,-2.808
0.456,-0.891,-0.302,-0.427,1.343,-2.686
0.455,-0.892,-0.296,0.305,1.282,-2.808
0.456,-0.895,-0.289,0.854,1.099,-3.052
0.454,-0.896,-0.286,1.221,0.793,-3.418
0.453,-0.899,-0.280,0.916,0.427,-3.906
0.446,-0.903,-0.279,0.366,-0.183,-4.395
0.445,-0.901,-0.278,-0.610,-0.610,-5.249
0.453,-0.898,-0.287,-1.831,-0.610,-6.165
0.459,-0.884,-0.296,-2.197,-0.488,-6.226
0.464,-0.870,-0.305,-2.197,-0.183,-5.676
0.456,-0.855,-0.300,-0.854,-0.610,-4.639
0.452,-0.849,-0.297,1.343,-1.099,-3.662
0.448,-0.851,-0.296,2.930,-1.099,-3.662
1.533,-2.484,-1.094,76.843,101.929,516.663
1.569,-2.468,-1.117,89.966,109.741,497.131
1.628,-2.504,-1.101,108.521,83.130,457.153
1.715,-2.626,-1.107,135.376,60.303,418.457
1.719,-2.726,-1.130,165.100,53.284,387.390
1.577,-2.832,-1.098,186.218,44.495,357.422
1.395,-3.024,-1.037,189.209,29.907,329.407
1.158,-3.046,-0.861,162.720,20.752,309.631
0.917,-2.958,-0.691,117.310,29.602,296.082
0.812,-2.803,-0.590,66.589,53.040,283.386
0.827,-2.631,-0.573,16.968,78.369,268.677
0.854,-2.483,-0.521,-20.020,92.529,250.671
0.690,-2.431,-0.401,-37.659,94.910,228.577
0.633,-2.257,-0.308,-45.105,93.323,201.782
0.615,-2.205,-0.253,-49.072,91.309,173.889
0.561,-2.206,-0.156,-45.837,73.120,136.902
0.529,-2.152,-0.096,-41.138,49.194,103.210
0.495,-2.002,-0.100,-39.917,26.184,76.111
0.433,-1.781,-0.104,-39.795,2.747,54.443
0.376,-1.540,-0.191,-42.114,-13.489,38.025
0.341,-1.346,-0.303,-42.725,-23.621,27.283
0.323,-1.202,-0.406,-36.194,-28.748,21.423
0.268,-1.111,-0.472,-22.400,-27.832,18.616
0.277,-1.073,-0.503,-4.333,-18.738,17.578
0.242,-1.018,-0.461,12.878,-1.099,17.517
0.256,-1.090,-0.374,31.006,14.771,10.925
0.316,-1.139,-0.279,42.847,26.550,-0.488
0.388,-1.160,-0.191,43.823,37.598,-7.690
0.463,-1.191,-0.168,41.565,43.884,-10.620
0.484,-1.172,-0.112,34.546,42.419,-10.925
0.505,-1.169,-0.089,22.949,34.729,-10.010
0.515,-1.145,-0.107,10.315,23.743,-7.751
0.499,-1.101,-0.140,0.183,10.193,-4.028
0.465,-1.035,-0.187,-7.507,-1.770,-0.549
0.420,-0.967,-0.235,-11.902,-9.766,1.038
0.386,-0.895,-0.282,-13.306,-13.550,0.488
0.356,-0.844,-0.319,-11.658,-13.245,-1.038
0.339,-0.805,-0.346,-7.385,-10.925,-2.441
0.324,-0.780,-0.355,-2.075,-7.385,-4.028
0.314,-0.763,-0.352,2.991,-3.784,-6.592
0.319,-0.788,-0.339,5.859,-0.427,-10.437
0.363,-0.834,-0.343,6.897,2.380,-13.672
0.380,-0.867,-0.321,7.629,3.357,-12.573
0.389,-0.890,-0.294,6.104,3.784,-7.568
0.387,-0.897,-0.275,1.526,4.395,-1.892
0.399,-0.892,-0.281,-3.784,3.357,3.723
0.399,-0.890,-0.286,-7.141,0.549,7.446
0.383,-0.891,-0.293,-7.568,-2.686,9.827
0.367,-0.897,-0.307,-4.822,-5.737,10.559
0.345,-0.904,-0.321,-1.770,-7.996,9.216
0.338,-0.913,-0.336,1.099,-8.850,7.324
0.329,-0.924,-0.346,3.296,-8.240,5.676
0.324,-0.940,-0.349,4.761,-6.775,4.211
0.315,-0.950,-0.347,4.822,-3.601,3.174
0.316,-0.962,-0.339,4.456,-0.671,1.526
0.336,-0.976,-0.332,3.052,1.160,-0.671
0.346,-0.985,-0.321,0.366,2.136,-2.441
0.349,-0.980,-0.315,-2.441,2.014,-3.113
0.363,-0.976,-0.322,-4.883,1.160,-3.723
0.369,-0.966,-0.329,-6.042,-0.366,-4.089
0.368,-0.955,-0.334,-5.920,-2.930,-4.639
0.358,-0.936,-0.333,-4.456,-5.127,-4.150
0.349,-0.929,-0.341,-2.441,-6.409,-3.174
0.338,-0.937,-0.344,-0.793,-6.897,-2.625
0.328,-0.947,-0.351,0.427,-5.920,-2.258
0.313,-0.958,-0.349,1.709,-3.845,-1.526
0.304,-0.965,-0.341,2.563,-1.282,-1.892
0.311,-0.975,-0.338,2.625,1.221,-3.052
0.313,-0.971,-0.330,2.197,2.930,-4.395
0.317,-0.961,-0.317,1.038,3.906,-5.920
0.333,-0.965,-0.324,-0.610,4.272,-7.385
0.337,-0.953,-0.324,-1.770,3.540,-7.324
0.336,-0.950,-0.320,-2.197,1.709,-7.812
0.339,-0.949,-0.321,-3.052,-0.122,-8.728
0.344,-0.941,-0.327,-3.296,-1.465,-8.545
0.341,-0.932,-0.328,-2.930,-2.991,-8.179
0.334,-0.926,-0.332,-2.319,-4.395,-8.301
0.329,-0.923,-0.339,-1.709,-5.188,-8.179
0.325,-0.917,-0.346,-1.709,-5.371,-8.362
0.319,-0.911,-0.351,-2.319,-4.333,-8.179
0.314,-0.902,-0.354,-2.563,-3.113,-7.568
0.311,-0.893,-0.359,-2.502,-1.526,-6.775
0.313,-0.893,-0.357,-2.014,-0.183,-6.409
0.316,-0.889,-0.353,-1.221,1.404,-6.104
0.322,-0.894,-0.349,-0.549,2.747,-6.042
0.329,-0.901,-0.343,0.061,3.845,-5.920
0.333,-0.912,-0.335,0.732,5.066,-5.798
0.338,-0.912,-0.331,1.221,5.310,-5.859
0.344,-0.916,-0.323,1.404,4.639,-6.531
0.344,-0.923,-0.317,0.916,3.662,-7.324
0.341,-0.931,-0.316,0.061,2.258,-6.958
0.331,-0.936,-0.312,-1.404,0.732,-6.287
0.318,-0.930,-0.307,-4.028,-0.610,-6.104
0.321,-0.922,-0.317,-7.507,-1.404,-6.714
0.320,-0.910,-0.329,-9.521,-2.136,-7.019
0.317,-0.902,-0.333,-9.094,-2.869,-6.592
0.306,-0.882,-0.339,-7.141,-2.380,-5.127
0.301,-0.872,-0.335,-4.333,-1.465,-3.906
0.293,-0.885,-0.328,-1.587,-0.061,-3.662
0.298,-0.892,-0.321,1.160,1.343,-3.601
0.304,-0.911,-0.310,2.869,2.991,-3.662
0.314,-0.921,-0.294,3.601,4.150,-3.967
0.327,-0.932,-0.283,2.869,4.578,-4.517
0.338,-0.940,-0.273,0.977,3.601,-4.822
0.336,-0.946,-0.264,-1.282,1.709,-4.578
0.342,-0.948,-0.269,-3.784,-0.122,-5.005
0.337,-0.941,-0.284,-6.104,-1.648,-5.676
0.322,-0.919,-0.278,-7.263,-3.357,-5.981
0.326,-0.910,-0.298,-6.165,-4.456,-6.104
0.318,-0.903,-0.301,-5.005,-5.493,-6.287
0.311,-0.899,-0.314,-2.991,-5.310,-5.371
0.304,-0.908,-0.321,-1.099,-3.967,-4.395
0.291,-0.911,-0.315,0.244,-2.014,-3.723
0.296,-0.920,-0.320,0.732,-0.305,-3.723
0.300,-0.919,-0.316,0.366,0.977,-3.662
0.301,-0.919,-0.314,-0.488,1.404,-3.601
0.302,-0.919,-0.313,-1.343,1.343,-3.601
0.306,-0.913,-0.316,-2.502,0.854,-4.089
0.309,-0.908,-0.320,-3.357,0.061,-4.517
1.461,-2.550,-0.900,112.366,62.317,517.334
1.482,-2.695,-0.966,153.748,48.340,493.286
1.444,-2.922,-0.926,202.942,24.109,447.876
1.321,-3.258,-0.764,234.070,2.563,387.512
1.092,-3.505,-0.515,233.215,-5.188,329.834
0.910,-3.567,-0.376,199.280,0.671,290.161
0.747,-3.412,-0.303,136.963,14.160,269.836
0.615,-3.146,-0.301,66.345,28.198,261.047
0.569,-2.846,-0.336,7.385,37.903,256.409
0.564,-2.600,-0.361,-32.471,44.434,248.718
0.502,-2.387,-0.329,-50.354,49.072,236.450
0.459,-2.196,-0.264,-49.683,51.697,216.553
0.374,-2.066,-0.236,-40.039,52.734,186.340
0.399,-1.844,-0.198,-30.273,56.396,157.288
0.356,-1.948,-0.181,-12.634,48.828,119.324
0.338,-1.803,-0.204,-3.662,32.227,85.388
0.372,-1.619,-0.207,-4.578,24.536,67.932
0.362,-1.591,-0.244,-0.916,8.850,54.626
0.356,-1.446,-0.289,-4.456,-3.113,53.223
0.331,-1.369,-0.335,-5.554,-8.545,60.120
0.304,-1.378,-0.377,-0.427,-11.169,64.331
0.212,-1.367,-0.333,5.554,-9.338,61.646
0.165,-1.390,-0.297,13.367,-1.770,49.622
0.207,-1.385,-0.286,18.799,12.329,33.936
0.232,-1.362,-0.262,21.606,24.170,18.250
0.284,-1.274,-0.262,20.935,33.325,4.578
0.369,-1.251,-0.242,18.250,36.072,-8.301
0.391,-1.206,-0.197,15.686,29.907,-18.616
0.425,-1.121,-0.210,12.573,22.949,-18.738
0.420,-1.075,-0.223,11.230,15.381,-13.794
0.415,-1.038,-0.257,9.949,8.423,-6.775
0.373,-1.009,-0.259,10.925,1.709,-0.854
0.337,-1.004,-0.265,11.719,-2.563,1.770
0.314,-1.010,-0.268,11.902,-3.113,1.648
0.296,-1.008,-0.270,11.047,-0.244,0.183
0.302,-1.005,-0.276,9.216,3.967,-2.136
0.308,-0.994,-0.263,6.836,7.568,-4.456
0.338,-0.986,-0.259,4.578,10.498,-6.531
0.328,-0.961,-0.243,2.258,12.878,-8.057
0.359,-0.966,-0.244,1.526,13.733,-8.240
0.377,-0.969,-0.237,1.526,12.939,-7.263
0.384,-0.974,-0.229,0.854,10.559,-5.493
0.376,-0.978,-0.221,0.732,7.263,-3.662
0.362,-0.968,-0.222,-0.061,4.028,-2.014
0.354,-0.956,-0.230,-1.221,0.977,-1.404
0.353,-0.949,-0.246,-1.953,-1.892,-1.465
0.332,-0.935,-0.254,-1.770,-4.089,-0.732
0.311,-0.923,-0.260,-0.488,-5.249,-0.671
0.306,-0.930,-0.276,1.099,-5.432,-2.075
0.300,-0.936,-0.279,2.808,-5.005,-3.235
0.295,-0.952,-0.270,4.517,-3.540,-3.967
0.304,-0.953,-0.269,4.822,-0.549,-4.944
0.322,-0.949,-0.265,4.272,1.953,-6.287
0.333,-0.944,-0.261,4.395,2.808,-7.141
0.339,-0.926,-0.251,4.761,2.319,-7.629
0.347,-0.930,-0.255,4.272,0.854,-8.728
0.349,-0.928,-0.268,3.906,-1.221,-9.460
0.340,-0.934,-0.271,4.578,-3.906,-9.644
0.323,-0.927,-0.274,4.395,-6.226,-9.644
0.313,-0.920,-0.283,3.296,-7.629,-9.521
0.313,-0.922,-0.302,1.770,-8.362,-9.399
0.303,-0.918,-0.318,1.099,-8.179,-8.118
0.290,-0.915,-0.318,1.343,-6.836,-6.653
0.283,-0.913,-0.317,1.709,-4.639,-6.165
0.283,-0.913,-0.310,1.770,-2.625,-6.409
0.282,-0.915,-0.300,2.441,-1.221,-7.385
0.278,-0.915,-0.289,2.747,-0.610,-9.094
0.286,-0.902,-0.284,2.319,-0.610,-11.963
0.290,-0.904,-0.299,1.343,-1.465,-15.137
0.297,-0.884,-0.300,0.549,-3.235,-16.846
0.320,-0.878,-0.339,2.319,-5.493,-14.526
0.300,-0.889,-0.331,3.967,-7.202,-11.108
0.294,-0.889,-0.335,5.005,-6.470,-5.920
0.281,-0.894,-0.332,6.531,-3.906,-1.099
0.262,-0.910,-0.313,7.568,-0.793,1.526
0.280,-0.939,-0.305,7.568,2.686,0.854
0.262,-0.941,-0.284,8.606,5.066,-1.282
0.297,-0.966,-0.276,7.507,6.836,-3.235
0.304,-0.958,-0.259,5.676,7.019,-4.395
0.310,-0.956,-0.264,3.723,6.042,-5.432
0.329,-0.947,-0.259,2.075,4.333,-5.676
0.315,-0.924,-0.252,0.183,0.793,-6.409
0.316,-0.923,-0.264,-0.916,-2.502,-6.714
0.320,-0.923,-0.295,-1.343,-5.920,-5.859
0.293,-0.910,-0.297,-1.465,-7.690,-4.028
0.271,-0.917,-0.313,-0.061,-7.385,-1.770
0.261,-0.921,-0.321,2.502,-5.737,0.122
0.254,-0.943,-0.309,3.174,-2.869,-0.244
0.255,-0.946,-0.296,3.784,-0.122,-0.610
0.265,-0.959,-0.288,3.540,1.770,-1.221
0.272,-0.963,-0.278,2.380,2.319,-1.831
0.279,-0.957,-0.275,1.343,1.953,-2.502
0.287,-0.951,-0.277,-0.305,1.221,-3.052
0.294,-0.938,-0.287,-1.770,0.610,-3.113
0.293,-0.927,-0.291,-1.709,-0.366,-2.686
0.292,-0.931,-0.296,-1.099,-0.977,-1.892
0.293,-0.933,-0.301,-0.244,-1.099,-1.038
0.286,-0.939,-0.299,2.014,-1.465,-0.244
0.276,-0.954,-0.296,4.333,-1.465,0.427
0.274,-0.965,-0.292,5.554,-1.038,-0.305
0.274,-0.974,-0.292,5.554,-0.549,-1.526
0.271,-0.967,-0.293,4.822,0.183,-1.953
0.268,-0.963,-0.293,3.479,0.366,-2.625
0.268,-0.963,-0.293,1.465,1.160,-3.357
0.281,-0.960,-0.301,-0.854,1.709,-3.906
0.286,-0.957,-0.303,-3.418,1.404,-4.456
0.289,-0.943,-0.307,-5.310,0.793,-4.395
0.284,-0.927,-0.305,-6.470,-0.061,-4.272
0.288,-0.921,-0.318,-6.897,-0.671,-3.906
0.283,-0.914,-0.329,-5.676,-1.099,-2.991
0.273,-0.914,-0.333,-3.357,-1.465,-2.075
0.257,-0.917,-0.325,-1.221,-1.404,-1.831
0.260,-0.924,-0.325,0.549,-0.977,-2.258
0.266,-0.928,-0.323,1.343,0.061,-2.808
0.268,-0.927,-0.319,1.465,1.343,-2.686
0.270,-0.923,-0.310,1.404,2.136,-2.441
0.271,-0.927,-0.303,1.160,2.441,-2.380
0.275,-0.930,-0.300,0.427,2.563,-2.319
0.276,-0.937,-0.295,-0.610,2.258,-2.380
1.177,-2.444,-0.773,103.943,146.973,489.929
1.235,-2.450,-0.835,129.883,123.596,455.688
1.323,-2.492,-0.849,167.603,93.262,414.917
1.480,-2.690,-0.839,203.186,72.388,376.770
1.599,-3.085,-0.821,222.534,60.730,351.257
1.489,-3.434,-0.719,219.727,52.917,338.745
1.256,-3.634,-0.547,188.660,48.645,330.200
0.972,-3.638,-0.343,129.578,56.030,314.941
0.766,-3.446,-0.188,61.646,76.050,294.006
0.690,-3.159,-0.078,2.319,100.037,271.545
0.782,-2.825,0.004,-37.964,118.286,246.582
0.691,-2.632,0.061,-55.176,127.197,216.797
0.811,-2.261,0.006,-49.255,124.878,186.157
0.740,-2.140,0.060,-22.217,114.624,157.166
0.657,-2.181,0.179,15.808,77.820,111.511
0.562,-2.133,0.219,40.100,37.903,66.528
0.504,-2.002,0.193,46.875,4.639,34.363
0.427,-1.808,0.071,41.016,-21.118,16.602
0.349,-1.562,-0.111,29.724,-38.330,14.038
0.227,-1.438,-0.222,25.635,-51.086,14.832
0.168,-1.326,-0.248,24.170,-54.688,16.785
0.117,-1.323,-0.301,23.743,-40.466,21.240
0.110,-1.319,-0.271,24.231,-21.423,20.996
0.167,-1.317,-0.260,22.583,-1.221,16.846
0.250,-1.304,-0.219,22.217,15.930,12.085
0.325,-1.311,-0.157,24.048,27.771,8.179
0.388,-1.306,-0.104,22.461,33.630,3.540
0.445,-1.287,-0.077,17.639,32.532,-1.709
0.455,-1.252,-0.049,11.963,25.269,-6.470
0.476,-1.190,-0.076,7.507,13.672,-9.827
0.459,-1.109,-0.111,5.371,-0.977,-13.062
0.433,-1.052,-0.159,5.676,-15.076,-14.832
0.383,-1.002,-0.205,8.728,-24.719,-13.794
0.329,-0.977,-0.247,11.658,-29.236,-13.367
0.295,-0.957,-0.284,14.221,-29.236,-13.733
0.268,-0.933,-0.291,16.418,-25.757,-14.587
0.259,-0.900,-0.288,17.639,-19.653,-15.808
0.277,-0.884,-0.282,17.090,-12.085,-16.541
0.295,-0.873,-0.268,15.930,-5.920,-15.747
0.312,-0.869,-0.257,13.977,-1.831,-13.733
0.334,-0.874,-0.255,10.925,-0.488,-11.475
0.350,-0.882,-0.254,8.423,-1.343,-8.606
0.347,-0.894,-0.244,5.981,-3.113,-5.249
0.346,-0.907,-0.241,3.052,-4.883,-2.930
0.343,-0.909,-0.250,-0.183,-6.042,-1.648
0.337,-0.907,-0.259,-2.075,-7.446,-0.977
0.321,-0.904,-0.263,-2.258,-8.423,-0.793
0.314,-0.910,-0.271,-1.282,-8.545,-1.221
0.319,-0.925,-0.273,0.183,-8.545,-2.563
0.319,-0.935,-0.261,2.380,-8.789,-3.784
0.315,-0.936,-0.250,4.150,-8.667,-5.005
0.322,-0.939,-0.254,5.615,-8.301,-5.615
0.320,-0.935,-0.266,6.348,-8.728,-5.615
0.315,-0.931,-0.264,7.568,-9.277,-5.005
0.306,-0.940,-0.266,8.423,-10.071,-4.089
0.302,-0.946,-0.269,7.874,-9.888,-3.296
0.292,-0.955,-0.268,6.775,-9.094,-2.808
0.286,-0.952,-0.260,4.333,-8.057,-2.991
0.296,-0.944,-0.265,0.977,-7.019,-4.578
0.309,-0.922,-0.281,-0.549,-6.592,-5.920
0.315,-0.907,-0.295,0.122,-6.897,-6.348
0.310,-0.898,-0.306,2.014,-6.897,-6.409
0.299,-0.888,-0.305,4.333,-6.592,-6.348
0.297,-0.885,-0.316,7.141,-6.348,-7.263
0.306,-0.890,-0.317,9.399,-5.981,-8.545
0.308,-0.900,-0.316,11.475,-5.920,-8.789
0.300,-0.915,-0.302,13.000,-6.042,-7.568
0.290,-0.936,-0.282,12.634,-5.127,-5.859
0.282,-0.957,-0.275,9.094,-3.052,-4.456
0.286,-0.979,-0.270,3.906,-1.282,-4.272
0.286,-0.980,-0.264,-1.465,-0.061,-4.333
0.303,-0.975,-0.272,-5.981,0.183,-4.333
0.306,-0.961,-0.274,-6.775,-0.732,-3.845
0.305,-0.949,-0.275,-5.554,-2.319,-3.235
0.305,-0.940,-0.271,-4.089,-3.845,-3.784
0.304,-0.933,-0.277,-2.136,-5.127,-4.944
0.299,-0.928,-0.287,0.854,-5.920,-5.249
0.297,-0.921,-0.299,3.967,-6.226,-5.127
0.282,-0.922,-0.299,6.348,-6.042,-5.554
0.287,-0.927,-0.302,8.667,-5.493,-6.165
0.278,-0.938,-0.291,9.766,-4.333,-6.653
0.282,-0.949,-0.280,9.216,-2.808,-7.080
0.283,-0.965,-0.278,7.263,-1.038,-7.385
0.285,-0.971,-0.272,4.456,0.732,-7.080
0.289,-0.968,-0.281,1.343,1.892,-5.859
0.290,-0.962,-0.283,-0.671,2.441,-3.906
0.286,-0.952,-0.294,-1.526,3.235,-1.709
0.282,-0.945,-0.293,-1.587,3.479,-0.427
0.289,-0.957,-0.292,-0.916,2.930,-0.732
0.287,-0.965,-0.285,0.488,2.380,-0.793
0.282,-0.977,-0.274,1.953,2.258,-0.427
0.280,-0.991,-0.268,2.319,2.563,-0.854
0.279,-0.998,-0.256,2.441,2.747,-1.831
0.286,-1.001,-0.252,2.136,2.869,-3.235
0.290,-0.994,-0.255,0.610,2.502,-4.761
0.292,-0.975,-0.258,-0.977,1.831,-5.737
0.293,-0.958,-0.264,-2.014,0.916,-6.470
0.291,-0.949,-0.267,-2.258,-0.122,-6.958
0.292,-0.947,-0.271,-2.014,-0.793,-6.897
0.289,-0.953,-0.276,-1.831,-0.977,-6.409
0.284,-0.960,-0.271,-1.038,-0.977,-5.554
0.275,-0.974,-0.265,-0.366,-0.610,-5.005
0.274,-0.990,-0.259,-0.183,0.305,-4.456
0.268,-1.000,-0.248,-0.916,1.099,-4.333
0.269,-1.001,-0.239,-2.747,1.526,-4.578
0.275,-1.000,-0.238,-5.249,1.526,-5.310
0.283,-0.978,-0.244,-7.812,0.793,-5.188
0.284,-0.957,-0.249,-9.155,-0.488,-5.066
0.279,-0.940,-0.255,-8.972,-1.343,-4.944
0.269,-0.925,-0.272,-8.362,-1.709,-5.066
0.281,-0.928,-0.281,-6.348,-2.563,-5.371
0.269,-0.933,-0.278,-2.686,-3.174,-4.944
0.256,-0.941,-0.275,0.305,-2.319,-4.578
0.257,-0.959,-0.273,2.380,-0.916,-4.883
0.260,-0.969,-0.266,2.930,0.610,-5.798
0.271,-0.971,-0.264,2.197,1.587,-5.981
0.278,-0.968,-0.263,0.427,1.587,-5.432
0.275,-0.958,-0.264,-1.099,0.977,-4.944
0.274,-0.958,-0.262,-2.625,-0.061,-5.127
1.453,-1.831,-0.586,30.579,96.985,530.029
1.460,-1.667,-0.697,46.021,87.158,519.409
1.627,-1.635,-0.857,86.243,62.500,487.305
1.896,-1.905,-1.052,149.048,36.499,442.383
1.960,-2.433,-1.037,227.722,10.376,398.804
1.749,-3.020,-0.844,287.231,-13.733,360.840
1.442,-3.405,-0.540,293.335,-28.076,327.942
1.162,-3.544,-0.296,239.319,-25.330,300.720
0.927,-3.463,-0.156,152.832,-6.165,280.334
0.787,-3.190,-0.115,64.514,18.799,268.738
0.730,-2.855,-0.143,-3.235,38.086,257.507
0.752,-2.514,-0.232,-40.710,45.837,239.624
0.682,-2.383,-0.223,-45.349,41.809,214.172
0.536,-2.226,-0.144,-30.396,27.344,179.565
0.458,-2.015,-0.205,-13.123,20.020,149.414
0.421,-2.055,-0.195,8.850,8.118,113.098
0.353,-2.037,-0.186,25.024,-13.794,78.125
0.300,-1.842,-0.264,22.095,-24.597,59.570
0.265,-1.713,-0.313,15.137,-27.466,52.490
0.211,-1.578,-0.363,7.141,-29.480,49.927
0.231,-1.464,-0.435,-2.014,-23.193,50.903
0.221,-1.459,-0.437,-0.366,-16.174,49.255
0.213,-1.453,-0.416,6.775,-6.042,45.288
0.219,-1.429,-0.364,14.648,8.667,39.490
0.233,-1.421,-0.285,23.315,23.682,30.884
0.340,-1.379,-0.270,26.794,37.720,20.569
0.456,-1.308,-0.240,27.100,45.898,9.399
0.500,-1.327,-0.192,30.701,41.016,-2.380
0.543,-1.295,-0.174,30.945,30.640,-9.277
0.512,-1.250,-0.157,28.625,18.921,-10.620
0.495,-1.219,-0.175,25.940,8.240,-8.423
0.475,-1.193,-0.202,19.897,-0.122,-7.446
0.451,-1.166,-0.244,11.902,-7.202,-7.141
0.404,-1.124,-0.274,5.127,-11.536,-5.676
0.369,-1.083,-0.307,-0.977,-12.085,-5.066
0.344,-1.042,-0.330,-5.371,-9.338,-6.287
0.341,-1.001,-0.336,-7.019,-4.883,-8.484
0.341,-0.969,-0.328,-6.714,-0.366,-11.047
0.380,-0.942,-0.325,-5.859,4.272,-13.916
0.363,-0.888,-0.298,-4.761,8.179,-16.479
0.396,-0.864,-0.301,-2.014,9.949,-17.700
0.420,-0.861,-0.296,1.160,9.033,-18.127
0.416,-0.863,-0.287,3.601,6.287,-17.822
0.415,-0.882,-0.273,5.615,2.441,-17.151
0.409,-0.894,-0.271,6.714,-0.549,-15.808
0.394,-0.902,-0.263,5.737,-2.502,-13.855
0.383,-0.904,-0.264,3.235,-3.906,-11.780
0.366,-0.896,-0.281,0.610,-4.028,-9.766
0.360,-0.889,-0.301,-1.587,-3.113,-8.240
0.350,-0.866,-0.307,-2.930,-1.404,-7.263
0.351,-0.849,-0.301,-2.747,0.671,-7.080
0.372,-0.851,-0.305,-0.183,2.258,-7.446
0.348,-0.835,-0.284,2.930,2.686,-8.301
0.373,-0.845,-0.305,6.958,2.625,-8.484
0.357,-0.873,-0.309,14.526,1.831,-9.033
0.356,-0.896,-0.316,17.639,1.770,-10.315
0.352,-0.912,-0.313,19.653,1.892,-11.230
0.348,-0.917,-0.311,19.775,2.991,-10.498
0.355,-0.932,-0.310,18.127,4.578,-9.644
0.313,-0.936,-0.288,13.733,6.287,-8.545
0.334,-0.926,-0.309,8.606,7.874,-6.653
0.336,-0.923,-0.314,4.150,7.996,-5.981
0.311,-0.911,-0.323,1.160,7.996,-5.493
0.322,-0.913,-0.329,-0.427,8.545,-5.737
0.323,-0.910,-0.333,-0.916,9.094,-7.080
0.333,-0.917,-0.331,-0.793,9.705,-7.385
0.322,-0.927,-0.304,0.244,9.949,-7.202
0.331,-0.943,-0.302,1.221,9.888,-8.057
0.340,-0.958,-0.301,1.404,9.399,-9.155
0.317,-0.945,-0.287,1.526,7.935,-9.399
0.334,-0.946,-0.299,1.648,6.897,-9.338
0.331,-0.933,-0.288,1.709,4.944,-9.583
0.340,-0.926,-0.291,1.160,2.502,-9.888
0.335,-0.920,-0.291,0.916,0.671,-9.216
0.327,-0.910,-0.287,0.122,-0.366,-8.301
0.328,-0.915,-0.297,-0.854,-0.854,-8.545
0.330,-0.914,-0.299,-1.160,-1.221,-8.545
0.329,-0.914,-0.301,-1.038,-1.465,-8.301
0.326,-0.912,-0.311,-0.488,-1.282,-7.751
0.317,-0.903,-0.315,-0.061,-0.061,-6.653
0.308,-0.910,-0.312,1.282,1.160,-5.920
0.298,-0.913,-0.312,1.770,2.441,-6.409
0.302,-0.925,-0.302,2.502,3.906,-7.385
0.312,-0.942,-0.302,3.418,5.432,-7.324
0.303,-0.937,-0.286,3.113,6.653,-7.080
0.318,-0.953,-0.291,0.488,7.324,-6.836
0.318,-0.937,-0.295,-3.540,7.019,-6.165
0.326,-0.942,-0.296,-6.592,4.944,-5.432
0.315,-0.919,-0.294,-8.606,2.380,-4.089
0.309,-0.912,-0.307,-10.376,0.244,-3.479
0.299,-0.914,-0.316,-10.986,-0.793,-3.479
0.298,-0.913,-0.326,-9.705,-1.343,-2.869
0.286,-0.915,-0.325,-7.507,-0.671,-2.502
0.283,-0.925,-0.326,-4.944,0.610,-2.991
0.282,-0.936,-0.319,-2.258,2.075,-3.967
0.282,-0.948,-0.306,-0.122,3.235,-5.432
0.305,-0.968,-0.306,0.427,4.089,-7.202
0.287,-0.961,-0.283,-0.183,4.456,-7.996
0.298,-0.973,-0.291,-1.160,4.089,-7.629
0.298,-0.956,-0.276,-3.113,3.357,-7.019
0.305,-0.959,-0.285,-5.371,2.808,-7.080
0.299,-0.949,-0.290,-6.592,1.404,-6.836
0.301,-0.938,-0.300,-6.897,-0.244,-6.653
0.294,-0.927,-0.307,-5.615,-1.953,-5.615
0.282,-0.913,-0.310,-3.601,-2.808,-4.700
0.278,-0.912,-0.313,-1.831,-3.052,-5.005
0.276,-0.913,-0.309,0.183,-2.625,-5.554
0.280,-0.919,-0.305,1.587,-1.770,-5.493
0.286,-0.920,-0.298,1.770,-1.038,-5.066
0.291,-0.921,-0.294,0.977,-0.366,-4.395
0.292,-0.920,-0.291,-0.122,-0.061,-3.967
0.292,-0.919,-0.288,-0.854,-0.305,-3.845
0.301,-0.921,-0.289,-1.770,-0.549,-3.784
0.305,-0.924,-0.293,-2.441,-1.099,-3.723
0.297,-0.918,-0.289,-2.502,-1.770,-3.418
0.294,-0.915,-0.293,-2.075,-1.831,-3.357
0.293,-0.915,-0.296,-1.282,-1.953,-3.235
0.288,-0.917,-0.298,-0.427,-2.258,-3.052
0.286,-0.926,-0.302,0.122,-2.136,-3.113
1.647,-1.853,-1.236,103.027,10.986,535.034
1.987,-2.400,-1.481,138.245,29.175,500.427
2.232,-2.655,-1.646,175.903,47.241,456.360
2.288,-3.225,-1.183,233.032,21.973,419.556
1.698,-3.960,-0.550,285.461,-56.152,355.103
1.325,-3.553,-0.437,247.314,-54.016,335.999
1.048,-3.458,-0.446,167.603,-4.272,328.674
0.813,-3.421,-0.342,101.624,23.560,305.664
0.788,-3.192,-0.381,29.297,48.584,279.907
0.805,-2.937,-0.379,-22.888,58.716,256.042
0.659,-2.764,-0.330,-39.185,50.659,232.178
0.449,-2.553,-0.156,-38.452,35.339,202.026
0.313,-2.437,-0.080,-30.823,19.897,161.255
0.271,-2.371,-0.113,-20.386,2.930,114.319
0.132,-2.343,-0.117,-10.315,-15.869,70.190
0.151,-2.137,-0.265,-5.310,-29.846,33.630
0.047,-1.874,-0.397,-14.282,-21.362,12.878
0.072,-1.675,-0.392,-20.142,-24.536,-3.174
0.108,-1.542,-0.463,-20.630,-29.907,-15.320
0.116,-1.296,-0.510,-24.292,-29.907,-12.878
0.113,-1.161,-0.578,-20.630,-23.132,0.000
0.104,-1.094,-0.541,-10.376,-13.367,13.062
0.105,-1.132,-0.464,2.563,-2.808,19.775
0.140,-1.181,-0.373,13.245,10.010,19.409
0.213,-1.235,-0.296,19.775,24.536,16.174
0.279,-1.272,-0.240,20.325,36.804,12.085
0.353,-1.304,-0.210,18.372,43.213,7.446
0.386,-1.304,-0.185,15.320,41.565,1.892
0.390,-1.267,-0.135,11.597,34.668,-2.869
0.419,-1.236,-0.141,7.812,25.146,-5.493
0.368,-1.222,-0.156,4.761,13.977,-7.690
0.358,-1.118,-0.203,1.465,4.211,-7.202
0.304,-1.133,-0.222,2.625,-3.479,-8.728
0.282,-1.077,-0.239,3.296,-10.254,-13.489
0.261,-1.028,-0.273,2.197,-10.681,-16.235
0.237,-0.969,-0.286,2.380,-8.118,-18.433
0.229,-0.913,-0.296,2.258,-3.845,-20.874
0.269,-0.879,-0.288,1.038,0.244,-24.719
0.293,-0.844,-0.283,-0.854,3.479,-25.940
0.321,-0.822,-0.282,-1.770,5.371,-24.109
0.358,-0.816,-0.293,-1.465,5.737,-20.630
0.371,-0.807,-0.286,-0.244,4.333,-14.038
0.367,-0.807,-0.276,2.625,1.892,-5.432
0.362,-0.841,-0.269,5.371,-0.977,0.916
0.342,-0.866,-0.258,7.324,-3.967,5.737
0.318,-0.899,-0.253,7.690,-5.798,7.874
0.299,-0.931,-0.259,6.653,-6.042,7.263
0.289,-0.948,-0.259,4.822,-5.249,5.737
0.273,-0.955,-0.254,3.113,-4.761,3.174
0.273,-0.954,-0.260,2.258,-4.700,-0.183
0.280,-0.950,-0.266,1.648,-4.517,-2.869
0.271,-0.944,-0.271,2.014,-4.578,-4.883
0.272,-0.935,-0.284,3.418,-4.822,-6.531
0.272,-0.931,-0.285,4.761,-4.333,-8.057
0.283,-0.927,-0.299,5.066,-3.296,-9.583
0.303,-0.930,-0.311,4.578,-2.441,-9.338
0.298,-0.917,-0.302,3.662,-1.648,-6.836
0.296,-0.920,-0.302,2.136,-1.099,-3.845
0.302,-0.925,-0.301,0.122,-0.366,-1.892
0.281,-0.928,-0.296,-2.563,0.244,-1.038
0.280,-0.937,-0.284,-4.883,0.427,-1.160
0.279,-0.935,-0.287,-4.395,0.061,-0.793
0.273,-0.941,-0.281,-4.089,-0.183,-1.831
0.286,-0.945,-0.292,-3.174,-0.427,-3.052
0.292,-0.956,-0.289,-1.526,-1.770,-4.028
0.261,-0.954,-0.273,-0.305,-3.357,-5.737
0.279,-0.965,-0.283,0.793,-4.333,-6.531
0.272,-0.970,-0.281,1.404,-4.639,-6.409
0.268,-0.973,-0.276,1.770,-4.578,-4.944
0.265,-0.980,-0.277,1.648,-4.089,-3.418
0.264,-0.975,-0.275,1.160,-3.601,-2.686
0.243,-0.968,-0.273,0.427,-3.601,-2.502
0.249,-0.963,-0.271,-0.793,-3.113,-2.991
0.254,-0.962,-0.275,-1.465,-2.686,-3.784
0.252,-0.958,-0.277,-2.075,-2.930,-4.883
0.258,-0.954,-0.273,-2.502,-2.502,-5.920
0.256,-0.955,-0.280,-3.052,-1.038,-7.019
0.261,-0.958,-0.270,-3.967,0.122,-8.301
0.284,-0.965,-0.279,-3.906,0.122,-9.277
0.274,-0.967,-0.262,-4.456,-0.854,-9.827
0.294,-0.964,-0.279,-3.845,-2.136,-8.240
0.267,-0.960,-0.269,-2.869,-3.784,-6.348
0.275,-0.954,-0.278,-2.869,-5.310,-4.395
0.282,-0.946,-0.292,-2.502,-6.409,-3.601
0.243,-0.946,-0.283,-1.892,-7.446,-2.991
0.249,-0.940,-0.298,-0.427,-7.019,-1.282
0.225,-0.953,-0.291,0.305,-5.615,-1.343
0.238,-0.954,-0.295,0.183,-4.028,-1.831
0.222,-0.967,-0.284,0.061,-2.258,-2.380
0.238,-0.958,-0.288,-0.793,-0.549,-2.747
0.235,-0.959,-0.284,-1.282,1.038,-3.052
0.253,-0.955,-0.281,-1.099,1.282,-3.601
0.244,-0.963,-0.269,-0.549,1.465,-5.127
0.263,-0.973,-0.279,-0.610,1.465,-6.714
0.269,-0.975,-0.275,-0.366,0.793,-7.141
0.288,-0.968,-0.277,0.061,-0.122,-6.165
0.262,-0.966,-0.266,0.732,-1.038,-4.333
0.259,-0.960,-0.271,0.916,-1.587,-2.991
0.273,-0.945,-0.284,0.610,-1.465,-2.869
0.247,-0.954,-0.282,0.305,-2.014,-3.235
0.255,-0.951,-0.290,0.183,-1.892,-2.991
0.242,-0.960,-0.286,-0.732,-1.038,-2.747
0.242,-0.952,-0.288,-0.610,0.183,-2.136
0.229,-0.959,-0.272,-0.610,1.221,-1.831
0.240,-0.962,-0.273,-0.549,2.197,-2.075
0.231,-0.976,-0.268,-0.122,2.808,-2.991
0.242,-0.974,-0.266,-0.427,2.869,-3.723
0.249,-0.967,-0.272,-1.282,2.808,-4.028
0.259,-0.963,-0.278,-1.709,2.441,-4.333
0.258,-0.946,-0.274,-1.770,2.014,-4.517
0.265,-0.943,-0.278,-1.953,1.343,-4.822
0.273,-0.939,-0.281,-1.953,0.793,-4.456
0.272,-0.936,-0.277,-1.648,0.122,-3.479
0.270,-0.933,-0.278,-1.709,-0.366,-2.869
0.269,-0.934,-0.281,-1.526,-0.854,-2.319
0.265,-0.931,-0.281,-0.916,-1.343,-1.648
0.253,-0.932,-0.282,-0.427,-1.404,-1.587
0.249,-0.937,-0.292,0.122,-0.610,-1.709
0.243,-0.945,-0.294,0.793,1.160,-1.831
0.884,-2.473,-0.941,202.759,-63.721,347.900
0.896,-2.646,-0.978,180.603,-36.926,344.849
0.883,-2.767,-1.027,139.832,-14.893,344.482
0.847,-2.824,-1.075,93.506,-1.526,342.346
0.704,-2.786,-0.999,53.833,7.385,336.426
0.527,-2.635,-0.812,29.419,16.846,321.777
0.439,-2.490,-0.615,18.066,28.320,292.786
0.424,-2.338,-0.443,15.503,41.504,253.418
0.438,-2.249,-0.312,20.569,50.720,209.351
0.462,-2.213,-0.277,28.320,50.842,165.588
0.527,-2.225,-0.299,35.828,41.870,129.211
0.498,-2.159,-0.400,41.199,29.785,108.276
0.449,-2.129,-0.336,44.128,14.709,94.788
0.369,-2.131,-0.288,49.561,-7.629,80.627
0.290,-2.022,-0.228,43.335,-20.447,69.885
0.257,-1.915,-0.247,32.288,-22.278,61.707
0.250,-1.789,-0.340,20.142,-18.433,53.833
0.237,-1.664,-0.354,10.315,-12.878,48.828
0.217,-1.597,-0.364,7.446,-6.165,45.654
0.202,-1.512,-0.348,7.141,1.892,44.250
0.227,-1.473,-0.347,8.057,9.155,41.016
0.237,-1.457,-0.341,10.620,15.015,36.987
0.261,-1.447,-0.311,13.184,19.409,32.410
0.328,-1.437,-0.278,13.733,21.912,26.062
0.271,-1.472,-0.265,12.024,21.790,16.968
0.296,-1.396,-0.236,4.395,22.827,7.141
0.306,-1.391,-0.204,-2.075,18.799,-2.075
0.347,-1.319,-0.202,-7.996,12.085,-6.104
0.334,-1.210,-0.247,-15.442,6.775,-6.531
0.317,-1.116,-0.283,-20.630,2.686,-7.935
0.312,-1.030,-0.319,-21.606,-2.319,-10.010
0.299,-0.967,-0.352,-20.447,-5.493,-11.658
0.296,-0.915,-0.360,-15.625,-6.104,-12.390
0.277,-0.889,-0.361,-9.460,-4.456,-12.390
0.265,-0.852,-0.341,-5.005,-0.793,-12.817
0.273,-0.851,-0.337,-2.075,2.930,-14.038
0.292,-0.855,-0.335,-0.671,6.836,-14.465
0.307,-0.878,-0.329,0.244,8.972,-13.062
0.310,-0.893,-0.320,0.061,9.644,-10.498
0.308,-0.891,-0.303,-1.892,9.216,-8.484
0.316,-0.895,-0.309,-4.639,7.446,-7.690
0.314,-0.869,-0.314,-5.798,5.066,-6.226
0.323,-0.877,-0.322,-4.639,2.808,-4.150
0.318,-0.868,-0.322,-2.197,1.648,-2.075
0.301,-0.876,-0.317,0.916,0.366,-0.488
0.285,-0.887,-0.314,4.150,-0.488,-0.732
0.279,-0.891,-0.316,6.042,-0.183,-2.441
0.275,-0.884,-0.309,6.531,-0.122,-4.883
0.282,-0.883,-0.319,6.775,-0.183,-6.165
0.278,-0.882,-0.323,7.019,-0.854,-6.226
0.270,-0.897,-0.322,6.958,-1.587,-6.470
0.263,-0.915,-0.320,5.676,-1.404,-7.019
0.261,-0.933,-0.310,3.357,0.000,-7.446
0.258,-0.938,-0.298,0.549,2.014,-7.629
0.254,-0.918,-0.287,-2.563,4.333,-7.690
0.274,-0.907,-0.298,-5.249,6.409,-8.057
0.283,-0.889,-0.304,-5.676,6.897,-8.057
0.286,-0.882,-0.302,-3.540,5.615,-8.240
0.289,-0.881,-0.299,-0.183,3.662,-8.667
0.290,-0.890,-0.303,2.991,1.404,-8.911
0.282,-0.892,-0.296,5.737,-0.793,-7.935
0.274,-0.894,-0.297,7.568,-2.197,-6.470
0.271,-0.902,-0.303,8.911,-3.296,-5.005
0.256,-0.904,-0.299,10.132,-4.272,-3.662
0.244,-0.916,-0.294,9.949,-4.944,-2.869
0.238,-0.936,-0.293,7.935,-4.761,-2.808
0.229,-0.937,-0.294,4.272,-3.357,-2.869
0.234,-0.933,-0.299,0.061,-0.977,-3.174
0.239,-0.921,-0.306,-3.052,1.831,-3.357
0.250,-0.904,-0.314,-3.967,4.333,-3.662
0.251,-0.900,-0.308,-3.235,5.676,-4.395
0.261,-0.913,-0.300,-2.380,6.287,-6.042
0.277,-0.919,-0.303,-1.587,6.653,-7.141
0.285,-0.914,-0.301,0.305,5.615,-7.141
0.283,-0.913,-0.299,3.540,3.113,-6.592
0.279,-0.918,-0.304,6.775,0.244,-5.310
0.273,-0.933,-0.309,9.094,-2.441,-3.662
0.260,-0.953,-0.307,9.644,-4.456,-2.563
0.240,-0.969,-0.304,8.728,-4.944,-0.854
0.232,-0.984,-0.307,5.981,-3.906,0.183
0.229,-0.992,-0.306,2.014,-1.953,0.671
0.231,-0.991,-0.309,-1.831,0.000,0.793
0.232,-0.980,-0.310,-4.883,1.526,0.183
0.233,-0.972,-0.311,-6.165,1.831,-1.526
0.234,-0.965,-0.311,-5.371,1.160,-3.174
0.238,-0.965,-0.312,-4.150,0.183,-5.066
0.242,-0.964,-0.316,-3.418,-0.854,-7.263
0.239,-0.949,-0.326,-2.258,-2.197,-8.789
0.242,-0.933,-0.340,-0.427,-3.906,-9.460
0.251,-0.938,-0.354,2.258,-5.371,-9.216
0.239,-0.937,-0.351,5.554,-6.409,-6.897
0.227,-0.943,-0.348,7.935,-5.981,-4.028
0.215,-0.958,-0.341,8.484,-3.967,-2.319
0.212,-0.975,-0.336,7.446,-1.282,-1.404
0.216,-0.992,-0.327,5.127,1.648,-1.282
0.223,-0.998,-0.324,1.953,4.395,-0.732
0.229,-0.986,-0.316,-1.526,6.287,-0.671
0.238,-0.974,-0.318,-3.540,5.981,-1.343
0.242,-0.963,-0.318,-3.906,4.272,-2.136
0.239,-0.952,-0.322,-2.502,1.892,-2.686
0.238,-0.947,-0.327,-0.183,-0.610,-3.174
0.242,-0.954,-0.342,1.953,-2.747,-3.540
0.225,-0.945,-0.339,4.028,-4.578,-3.357
0.212,-0.941,-0.340,5.249,-5.371,-3.357
0.210,-0.948,-0.349,5.249,-4.883,-3.479
0.202,-0.953,-0.360,4.944,-3.540,-3.479
0.200,-0.965,-0.356,4.395,-1.526,-3.540
0.198,-0.978,-0.350,2.625,0.854,-3.540
0.201,-0.975,-0.342,0.244,2.563,-3.296
0.210,-0.974,-0.342,-2.441,4.395,-3.357
0.223,-0.960,-0.342,-4.150,5.188,-3.357
0.221,-0.946,-0.329,-4.578,4.883,-3.967
0.230,-0.943,-0.330,-4.333,3.845,-4.944
0.234,-0.933,-0.332,-3.418,2.686,-5.310
0.235,-0.926,-0.333,-2.075,0.793,-5.432
0.244,-0.922,-0.345,-0.427,-1.221,-4.944
0.234,-0.921,-0.345,1.465,-2.502,-3.662
0.227,-0.925,-0.347,3.174,-2.319,-1.953
0.216,-0.933,-0.344,3.540,-1.343,-0.977
0.807,-2.268,-0.872,113.220,29.724,350.830
0.793,-2.522,-0.893,136.536,21.729,343.933
0.609,-2.756,-0.736,153.259,5.371,336.975
0.506,-2.895,-0.583,151.917,-6.165,324.890
0.349,-2.965,-0.381,130.432,-5.859,305.237
0.268,-2.948,-0.245,96.069,6.104,282.898
0.244,-2.833,-0.172,58.899,24.597,259.766
0.234,-2.674,-0.124,27.405,40.344,233.948
0.192,-2.619,-0.116,9.949,48.767,205.566
0.240,-2.482,-0.238,3.357,47.485,175.537
0.145,-2.367,-0.204,3.906,47.424,151.306
0.195,-2.352,-0.139,13.062,38.025,124.329
0.219,-2.284,-0.103,20.447,22.339,97.473
0.180,-2.152,-0.060,20.325,5.859,75.256
0.155,-2.028,-0.086,17.212,-7.202,55.908
0.135,-1.877,-0.141,11.108,-14.343,41.321
0.107,-1.746,-0.195,6.348,-15.747,31.128
0.082,-1.662,-0.242,6.287,-12.817,24.353
0.073,-1.612,-0.266,9.399,-6.714,21.179
0.068,-1.555,-0.272,12.390,4.028,19.470
0.080,-1.569,-0.219,16.174,13.733,14.771
0.096,-1.533,-0.165,17.090,18.738,6.165
0.141,-1.503,-0.144,13.184,22.034,-3.174
0.181,-1.430,-0.140,8.667,21.790,-11.658
0.217,-1.361,-0.141,3.479,18.860,-18.860
0.258,-1.273,-0.161,-2.502,13.367,-25.818
0.276,-1.173,-0.180,-6.531,5.554,-31.006
0.279,-1.074,-0.214,-7.019,-3.601,-34.241
0.276,-0.994,-0.253,-4.578,-11.719,-35.217
0.263,-0.935,-0.282,0.854,-17.151,-33.081
0.229,-0.891,-0.290,7.568,-19.104,-30.029
0.208,-0.866,-0.291,13.794,-17.334,-28.198
0.206,-0.868,-0.291,17.883,-13.062,-28.137
0.210,-0.865,-0.287,20.203,-7.996,-26.917
0.216,-0.867,-0.272,20.996,-2.563,-23.315
0.227,-0.872,-0.254,19.592,2.930,-19.104
0.244,-0.884,-0.235,15.503,6.714,-16.174
0.260,-0.895,-0.222,9.827,8.118,-13.245
0.271,-0.884,-0.215,4.272,7.690,-9.827
0.271,-0.871,-0.214,-0.610,6.165,-7.019
0.275,-0.861,-0.223,-3.967,4.150,-5.554
0.270,-0.862,-0.226,-3.601,1.709,-4.578
0.250,-0.869,-0.227,-0.793,-0.488,-4.456
0.234,-0.876,-0.227,3.113,-2.075,-5.432
0.233,-0.884,-0.232,5.737,-2.686,-7.690
0.236,-0.890,-0.243,8.240,-2.625,-9.033
0.232,-0.893,-0.249,10.864,-2.502,-8.850
0.230,-0.904,-0.250,13.245,-2.747,-8.728
0.226,-0.928,-0.240,14.709,-3.235,-8.911
0.212,-0.947,-0.229,14.587,-3.967,-8.728
0.211,-0.960,-0.229,11.658,-4.272,-8.423
0.214,-0.962,-0.234,6.836,-4.517,-7.812
0.221,-0.957,-0.245,1.770,-4.639,-6.042
0.213,-0.937,-0.249,-2.563,-4.761,-4.028
0.213,-0.926,-0.260,-5.493,-3.967,-2.991
0.210,-0.919,-0.261,-6.653,-2.686,-2.869
0.206,-0.906,-0.256,-5.127,-1.770,-3.174
0.203,-0.907,-0.253,-2.930,-1.099,-4.883
0.214,-0.917,-0.254,-0.488,-1.038,-7.446
0.217,-0.914,-0.258,1.892,-1.526,-8.972
0.216,-0.922,-0.263,3.967,-2.625,-9.644
0.216,-0.941,-0.270,5.859,-4.456,-9.949
0.208,-0.954,-0.270,6.897,-6.470,-9.766
0.195,-0.953,-0.278,6.897,-8.240,-8.972
0.191,-0.961,-0.283,6.348,-9.888,-8.423
0.182,-0.947,-0.300,5.371,-10.681,-7.507
0.180,-0.946,-0.307,4.456,-9.827,-5.981
0.175,-0.943,-0.312,4.272,-8.606,-4.211
0.174,-0.937,-0.310,4.150,-6.714,-3.052
0.178,-0.949,-0.312,3.601,-4.517,-2.075
0.174,-0.957,-0.302,3.174,-1.892,-0.916
0.176,-0.970,-0.298,1.831,0.671,-0.366
0.188,-0.977,-0.300,-0.183,3.235,-0.244
0.192,-0.975,-0.293,-1.526,4.517,-0.366
0.198,-0.971,-0.286,-2.563,4.211,-0.977
0.206,-0.970,-0.287,-3.479,2.930,-1.892
0.206,-0.966,-0.290,-3.601,0.549,-2.441
0.199,-0.966,-0.294,-2.991,-1.892,-2.563
0.190,-0.973,-0.298,-1.648,-3.845,-2.136
0.171,-0.981,-0.295,-0.366,-5.066,-1.770
0.158,-0.987,-0.293,0.610,-5.127,-2.075
0.152,-0.987,-0.298,1.099,-3.845,-2.441
0.158,-0.994,-0.305,1.404,-1.831,-2.625
0.154,-0.997,-0.301,1.770,0.366,-2.502
0.158,-0.997,-0.289,0.977,2.258,-1.953
0.170,-0.997,-0.284,-0.854,4.150,-1.648
0.179,-0.990,-0.284,-2.502,5.432,-1.038
0.183,-0.979,-0.275,-3.113,5.432,-0.732
0.195,-0.977,-0.277,-3.235,4.333,-1.099
0.194,-0.974,-0.279,-2.625,2.441,-1.221
0.192,-0.984,-0.276,-1.160,0.000,-1.343
0.188,-1.002,-0.273,-0.732,-1.953,-2.197
0.175,-1.005,-0.268,-1.099,-4.028,-2.625
0.163,-1.008,-0.268,-2.197,-5.493,-2.930
0.154,-1.000,-0.279,-3.052,-5.615,-3.113
0.147,-0.985,-0.297,-2.808,-4.456,-3.052
0.152,-0.974,-0.310,-1.221,-2.380,-3.113
0.154,-0.976,-0.304,0.671,-0.854,-3.662
0.160,-0.985,-0.294,2.563,0.610,-3.906
0.160,-0.987,-0.282,3.784,1.831,-3.906
0.166,-0.996,-0.277,3.845,2.319,-4.150
0.165,-0.992,-0.273,3.174,2.441,-4.028
0.173,-0.994,-0.278,2.502,2.075,-3.845
0.177,-1.001,-0.283,1.221,0.671,-3.906
0.170,-1.001,-0.285,-0.610,-0.793,-3.052
0.162,-1.000,-0.289,-2.075,-1.038,-1.831
0.152,-0.995,-0.287,-2.930,-0.854,-1.587
0.151,-0.998,-0.293,-3.113,-0.671,-2.319
0.150,-0.995,-0.291,-2.258,-0.427,-2.930
0.154,-0.986,-0.290,-1.160,0.122,-3.235
0.154,-0.978,-0.291,-0.244,0.610,-3.296
0.152,-0.975,-0.291,0.610,0.916,-3.235
0.149,-0.983,-0.296,0.977,0.610,-3.479
0.140,-0.991,-0.297,0.977,0.000,-3.479
0.137,-0.993,-0.296,-0.061,0.183,-4.028
0.146,-0.986,-0.292,-1.587,1.221,-4.639
0.146,-0.984,-0.293,-2.014,1.343,-4.639
0.143,-0.969,-0.292,-2.380,1.221,-4.028
0.150,-0.969,-0.300,-2.319,1.160,-3.784
0.916,-2.785,-0.946,151.367,-50.842,418.396
0.831,-3.079,-1.013,134.766,-11.719,396.423
0.674,-3.135,-0.930,118.042,25.024,370.056
0.583,-3.147,-0.852,99.792,54.749,338.501
0.534,-3.048,-0.697,91.370,76.660,302.734
0.474,-2.865,-0.502,91.980,87.891,262.268
0.440,-2.737,-0.302,95.459,85.327,219.604
0.464,-2.645,-0.175,93.201,73.364,179.993
0.491,-2.562,-0.091,86.121,54.565,150.269
0.475,-2.509,-0.090,78.247,30.029,130.981
0.389,-2.454,-0.159,67.566,1.831,118.530
0.240,-2.408,-0.222,57.007,-26.184,108.643
0.071,-2.231,-0.328,48.035,-41.748,103.699
-0.068,-2.103,-0.276,39.917,-40.771,95.093
-0.111,-1.982,-0.296,33.752,-38.025,75.562
-0.127,-1.760,-0.310,21.423,-29.907,56.396
-0.081,-1.588,-0.361,13.550,-21.606,43.640
-0.008,-1.441,-0.418,10.193,-14.404,39.185
0.003,-1.366,-0.422,13.733,-10.559,42.358
-0.011,-1.328,-0.357,24.719,-8.545,47.180
-0.001,-1.354,-0.337,32.898,-2.686,48.035
0.021,-1.392,-0.287,37.231,4.761,44.861
0.045,-1.447,-0.218,36.865,11.780,38.574
0.094,-1.473,-0.172,30.518,18.250,31.067
0.122,-1.449,-0.114,20.813,22.827,23.743
0.175,-1.441,-0.098,11.536,23.621,17.883
0.240,-1.395,-0.093,1.770,21.729,12.146
0.184,-1.357,-0.104,-5.066,13.977,6.348
0.246,-1.267,-0.160,-9.277,7.935,2.991
0.213,-1.261,-0.163,-7.751,-1.221,-2.380
0.180,-1.169,-0.182,-3.479,-14.893,-7.263
0.147,-1.110,-0.233,2.075,-23.499,-11.353
0.129,-1.044,-0.297,7.263,-26.245,-14.709
0.125,-0.996,-0.348,11.047,-22.949,-15.930
0.112,-0.973,-0.352,15.747,-17.883,-15.564
0.114,-0.975,-0.339,17.456,-11.292,-14.954
0.130,-1.000,-0.321,16.113,-5.249,-14.526
0.150,-1.013,-0.303,11.963,0.061,-11.780
0.164,-1.015,-0.289,6.470,4.700,-6.714
0.174,-1.015,-0.286,0.977,7.568,-2.625
0.181,-1.000,-0.283,-2.808,7.385,-1.099
0.199,-0.992,-0.296,-4.089,4.761,-2.014
0.196,-0.985,-0.289,-2.502,-0.061,-3.052
0.185,-0.977,-0.279,0.244,-4.944,-4.333
0.182,-0.975,-0.289,2.075,-8.667,-5.737
0.161,-0.950,-0.303,4.028,-11.780,-6.592
0.148,-0.928,-0.319,6.409,-13.611,-8.118
0.152,-0.922,-0.343,8.728,-13.855,-10.559
0.148,-0.916,-0.351,12.329,-13.550,-11.108
0.136,-0.925,-0.348,16.113,-11.414,-9.766
0.136,-0.948,-0.336,16.785,-7.568,-8.484
0.142,-0.990,-0.313,14.587,-3.723,-7.141
0.150,-1.012,-0.296,9.888,0.000,-4.639
0.155,-1.012,-0.285,3.601,2.991,-2.625
0.165,-1.000,-0.290,-1.770,4.211,-1.648
0.170,-0.970,-0.288,-4.272,3.052,-2.380
0.175,-0.949,-0.295,-4.089,0.366,-4.211
0.177,-0.938,-0.313,-2.441,-2.747,-6.348
0.171,-0.938,-0.330,-0.183,-5.615,-7.629
0.170,-0.927,-0.341,1.953,-7.141,-7.812
0.167,-0.927,-0.352,3.418,-7.812,-7.202
0.150,-0.924,-0.347,5.981,-7.568,-4.883
0.143,-0.937,-0.343,7.874,-5.066,-2.258
0.140,-0.962,-0.331,7.385,-1.465,-0.732
0.140,-0.977,-0.317,5.554,1.465,0.183
0.147,-0.985,-0.309,3.052,3.601,0.916
0.151,-0.984,-0.302,0.732,4.272,1.038
0.160,-0.992,-0.300,-1.099,3.723,-0.183
0.156,-0.991,-0.300,-2.380,2.197,-1.648
0.161,-0.990,-0.310,-3.052,0.061,-2.747
0.152,-0.979,-0.309,-3.296,-1.038,-3.723
0.153,-0.982,-0.319,-3.174,-1.831,-4.578
0.140,-0.975,-0.317,-1.587,-3.113,-5.249
0.140,-0.977,-0.323,-1.221,-3.540,-5.859
0.137,-0.974,-0.329,-0.793,-3.784,-5.554
0.133,-0.969,-0.337,0.244,-3.113,-4.211
0.126,-0.964,-0.336,1.282,-2.319,-3.357
0.127,-0.964,-0.338,1.709,-1.343,-3.967
0.132,-0.958,-0.336,1.892,-0.549,-4.517
0.141,-0.949,-0.336,2.380,0.549,-4.639
0.141,-0.951,-0.328,2.197,1.465,-4.639
0.140,-0.956,-0.328,1.160,2.380,-4.639
0.141,-0.958,-0.326,0.244,3.357,-4.150
0.138,-0.957,-0.322,-0.244,3.540,-3.662
0.129,-0.957,-0.315,-0.610,3.723,-4.089
0.135,-0.962,-0.319,-1.038,3.662,-5.432
0.142,-0.962,-0.321,-0.488,3.235,-6.348
0.148,-0.961,-0.322,1.038,2.319,-6.104
0.143,-0.961,-0.326,2.319,1.648,-5.554
0.132,-0.953,-0.312,3.174,0.977,-5.371
0.134,-0.966,-0.324,4.089,1.465,-5.066
0.127,-0.970,-0.316,3.601,2.319,-5.859
0.131,-0.973,-0.317,3.113,3.479,-5.676
0.134,-0.972,-0.312,2.502,4.211,-4.883
0.137,-0.975,-0.307,1.648,4.456,-3.540
0.133,-0.979,-0.301,0.854,4.272,-2.441
0.123,-0.993,-0.297,-0.732,4.089,-2.380
0.122,-0.996,-0.302,-2.197,4.028,-2.991
0.126,-0.985,-0.313,-2.686,3.723,-3.418
0.129,-0.976,-0.317,-2.014,2.441,-4.028
0.127,-0.970,-0.320,-0.732,1.038,-4.761
0.125,-0.964,-0.320,0.427,0.488,-5.249
0.130,-0.959,-0.324,1.160,0.549,-5.371
0.130,-0.953,-0.322,1.953,0.732,-4.761
0.128,-0.952,-0.317,2.563,0.671,-3.601
0.130,-0.954,-0.316,2.747,0.610,-3.052
0.129,-0.960,-0.318,2.502,0.549,-2.258
0.121,-0.960,-0.316,2.075,0.366,-1.221
0.117,-0.958,-0.317,1.404,0.610,-0.854
0.120,-0.959,-0.320,1.221,0.916,-0.671
0.122,-0.965,-0.318,1.587,0.977,-0.732
0.118,-0.970,-0.308,2.014,0.732,-1.221
0.121,-0.973,-0.306,1.465,0.854,-2.075
0.124,-0.966,-0.309,0.671,0.916,-2.747
0.128,-0.962,-0.312,0.244,0.366,-3.052
0.125,-0.959,-0.318,0.122,-0.305,-3.113
0.120,-0.959,-0.322,0.000,-0.916,-3.296
0.115,-0.960,-0.325,-0.244,-1.282,-3.723
0.114,-0.959,-0.334,-0.183,-1.343,-3.967
1.034,-2.446,-1.128,108.521,-27.771,429.321
0.954,-2.775,-1.192,134.460,-30.823,411.072
0.744,-2.887,-1.066,153.809,-39.795,381.165
0.574,-2.913,-0.910,152.344,-46.204,341.858
0.439,-2.895,-0.721,128.235,-36.926,304.321
0.356,-2.799,-0.540,87.219,-10.376,275.696
0.368,-2.653,-0.474,37.231,23.682,255.676
0.472,-2.489,-0.532,-8.789,50.476,240.479
0.554,-2.322,-0.594,-38.818,61.340,227.600
0.537,-2.196,-0.592,-46.448,56.946,217.407
0.369,-2.159,-0.552,-39.063,46.631,204.102
0.286,-1.999,-0.549,-28.015,40.588,185.608
0.246,-1.998,-0.413,-13.611,40.894,157.776
0.229,-2.058,-0.316,2.747,31.677,120.911
0.234,-1.964,-0.257,7.874,26.428,91.736
0.257,-1.851,-0.253,10.071,23.071,71.899
0.207,-1.729,-0.248,10.437,16.541,57.922
0.169,-1.653,-0.276,7.446,8.728,47.119
0.159,-1.552,-0.307,6.042,0.305,36.926
0.139,-1.487,-0.327,7.690,-6.592,27.466
0.149,-1.416,-0.353,11.963,-9.644,21.057
0.172,-1.371,-0.383,18.860,-7.751,19.104
0.158,-1.328,-0.366,27.283,-4.333,19.531
0.117,-1.321,-0.304,35.278,0.732,18.860
0.137,-1.327,-0.289,35.217,11.047,15.869
0.190,-1.355,-0.223,28.992,21.912,12.024
0.247,-1.379,-0.190,23.560,23.071,8.057
0.213,-1.324,-0.165,12.512,23.804,8.118
0.244,-1.306,-0.172,4.272,22.705,8.240
0.263,-1.277,-0.186,-1.953,18.921,6.897
0.234,-1.211,-0.197,-5.127,13.245,5.310
0.247,-1.169,-0.236,-3.357,7.690,3.784
0.229,-1.129,-0.245,0.305,3.357,0.610
0.218,-1.106,-0.256,3.662,0.305,-4.089
0.208,-1.077,-0.258,5.859,-1.160,-9.766
0.208,-1.049,-0.265,6.287,-0.671,-15.015
0.215,-1.020,-0.281,5.554,0.488,-19.287
0.220,-0.998,-0.297,4.944,0.732,-21.851
0.225,-0.975,-0.301,4.211,0.183,-23.071
0.229,-0.969,-0.299,2.563,-0.366,-23.193
0.245,-0.967,-0.318,0.244,0.854,-21.240
0.242,-0.959,-0.320,-1.343,1.953,-17.273
0.229,-0.944,-0.311,-2.014,2.563,-12.146
0.232,-0.940,-0.323,-3.418,4.211,-8.362
0.204,-0.925,-0.302,-5.188,5.676,-7.202
0.209,-0.947,-0.309,-6.165,6.714,-8.118
0.206,-0.935,-0.302,-6.653,7.141,-10.376
0.217,-0.946,-0.305,-5.737,6.775,-13.489
0.226,-0.948,-0.305,-5.188,5.737,-17.334
0.242,-0.946,-0.305,-3.174,3.418,-20.081
0.256,-0.934,-0.304,-0.610,0.488,-21.240
0.247,-0.913,-0.308,1.892,-2.380,-20.630
0.253,-0.901,-0.301,3.479,-4.700,-18.860
0.249,-0.904,-0.320,4.578,-6.042,-16.418
0.244,-0.916,-0.314,5.676,-7.263,-13.367
0.219,-0.919,-0.311,6.165,-7.202,-9.949
0.207,-0.925,-0.306,5.798,-5.310,-7.568
0.199,-0.933,-0.313,4.822,-2.625,-6.470
0.190,-0.925,-0.310,3.418,0.305,-6.592
0.183,-0.922,-0.303,1.587,1.587,-8.301
0.184,-0.921,-0.307,-0.732,1.587,-10.559
0.172,-0.912,-0.310,-2.625,0.610,-12.878
0.167,-0.914,-0.317,-3.723,-0.793,-16.357
0.173,-0.933,-0.324,-4.456,-2.136,-20.630
0.188,-0.937,-0.331,-3.784,-3.845,-23.193
0.195,-0.937,-0.334,-1.099,-4.883,-21.667
0.191,-0.938,-0.325,2.136,-4.883,-17.334
0.179,-0.944,-0.324,3.418,-3.662,-12.390
0.168,-0.958,-0.322,2.747,-1.526,-8.667
0.151,-0.961,-0.314,1.709,0.854,-6.226
0.137,-0.961,-0.300,-0.549,3.296,-6.348
0.135,-0.967,-0.293,-4.456,5.188,-8.667
0.137,-0.966,-0.295,-8.850,6.958,-11.963
0.146,-0.948,-0.306,-11.658,7.751,-14.404
0.132,-0.924,-0.320,-12.939,7.446,-17.334
0.148,-0.914,-0.309,-12.207,5.554,-20.630
0.155,-0.923,-0.315,-9.155,2.625,-24.292
0.167,-0.922,-0.313,-6.348,-0.732,-27.466
0.172,-0.922,-0.323,-2.014,-4.883,-29.236
0.186,-0.945,-0.324,3.723,-8.118,-28.137
0.171,-0.949,-0.309,8.850,-9.338,-22.949
0.164,-0.974,-0.295,12.329,-9.338,-16.479
0.140,-1.000,-0.277,11.536,-8.362,-10.803
0.122,-1.020,-0.274,7.874,-6.714,-6.470
0.103,-1.026,-0.278,3.113,-4.517,-3.906
0.092,-1.016,-0.282,-1.831,-2.380,-3.418
0.082,-1.012,-0.289,-6.226,-0.977,-4.639
0.077,-1.001,-0.282,-9.888,0.427,-7.324
0.081,-1.004,-0.288,-12.756,2.014,-10.681
0.094,-0.996,-0.300,-14.526,3.540,-13.123
0.105,-0.983,-0.301,-14.160,3.723,-14.404
0.118,-0.979,-0.303,-12.207,3.052,-14.709
0.130,-0.965,-0.304,-9.033,1.465,-13.489
0.093,-0.943,-0.295,-5.859,-0.671,-11.902
0.131,-0.964,-0.310,-2.258,-2.319,-9.827
0.121,-0.965,-0.308,0.854,-3.479,-6.531
0.117,-0.964,-0.310,2.380,-3.540,-2.197
0.103,-0.957,-0.308,4.089,-2.747,1.770
0.100,-0.965,-0.308,4.761,-1.404,3.540
0.097,-0.979,-0.305,4.944,-0.427,3.601
0.089,-0.997,-0.288,3.906,0.305,2.197
0.100,-1.008,-0.285,1.099,1.892,0.000
0.110,-1.007,-0.285,-1.770,3.296,-1.282
0.119,-1.000,-0.285,-3.784,3.174,-1.160
0.118,-0.987,-0.288,-5.066,1.892,-1.160
0.120,-0.974,-0.299,-5.005,-0.122,-1.770
0.116,-0.962,-0.305,-3.662,-2.014,-2.258
0.111,-0.957,-0.313,-0.977,-3.357,-1.953
0.110,-0.964,-0.320,1.831,-3.784,-1.465
0.102,-0.969,-0.313,4.272,-3.601,-0.488
0.098,-0.982,-0.313,5.493,-2.686,0.793
0.098,-0.987,-0.308,5.432,-1.099,1.587
0.093,-0.989,-0.300,4.639,0.000,1.831
0.095,-0.996,-0.297,2.747,0.549,1.587
0.095,-1.001,-0.298,-0.122,1.099,0.610
0.094,-0.999,-0.297,-2.808,1.343,-0.732
0.102,-0.985,-0.303,-4.272,1.099,-1.465
0.104,-0.973,-0.302,-4.700,0.183,-2.380
0.107,-0.969,-0.309,-3.723,-1.099,-2.808
1.298,-2.002,-1.404,102.966,16.846,484.070
1.333,-2.187,-1.485,153.442,-0.061,451.233
1.470,-2.711,-1.507,192.200,-17.090,409.180
1.495,-3.292,-1.485,198.914,-18.738,373.718
1.285,-3.664,-1.314,174.866,-10.437,351.807
0.982,-3.751,-1.030,126.038,1.831,338.135
0.761,-3.671,-0.719,60.303,24.719,325.684
0.669,-3.460,-0.430,-6.042,59.326,313.538
0.703,-3.180,-0.276,-58.960,97.473,302.246
0.824,-2.844,-0.248,-88.013,122.498,285.767
0.607,-2.766,-0.086,-85.388,120.789,255.493
0.744,-2.560,-0.079,-57.861,97.351,214.844
0.590,-2.649,0.035,-21.606,73.425,173.645
0.457,-2.742,0.167,14.038,37.720,128.052
0.327,-2.705,0.233,32.104,9.094,84.900
0.248,-2.565,0.227,30.212,-11.658,48.096
0.212,-2.347,0.147,14.282,-24.170,21.423
0.201,-2.056,-0.014,-12.085,-27.039,10.559
0.148,-1.822,-0.185,-30.823,-28.687,12.268
0.057,-1.647,-0.282,-34.973,-29.480,17.273
-0.029,-1.542,-0.329,-27.832,-26.611,19.958
-0.083,-1.493,-0.321,-14.404,-19.958,17.151
-0.084,-1.471,-0.299,-1.953,-9.521,9.277
-0.037,-1.464,-0.270,6.958,1.160,-0.610
0.012,-1.418,-0.251,11.902,8.728,-10.071
0.049,-1.384,-0.220,11.597,13.855,-17.700
0.141,-1.352,-0.200,10.193,13.123,-23.865
0.213,-1.294,-0.191,5.676,9.033,-26.733
0.214,-1.213,-0.243,-1.892,3.296,-26.428
0.238,-1.139,-0.261,-7.202,0.122,-21.423
0.240,-1.091,-0.275,-6.287,-5.127,-18.188
0.211,-1.029,-0.284,-4.211,-7.751,-16.296
0.184,-1.006,-0.292,0.732,-7.385,-16.296
0.186,-0.990,-0.302,4.883,-4.639,-19.409
0.207,-0.978,-0.304,9.338,-1.770,-23.376
0.208,-0.961,-0.276,14.099,-0.427,-26.123
0.220,-0.956,-0.262,16.174,0.610,-28.992
0.244,-0.944,-0.270,14.771,1.892,-31.494
0.264,-0.927,-0.271,12.817,1.648,-31.128
0.282,-0.933,-0.271,10.010,-0.244,-29.175
0.280,-0.923,-0.266,5.981,-2.441,-25.085
0.260,-0.907,-0.273,2.502,-3.540,-19.226
0.238,-0.881,-0.278,0.061,-3.540,-14.038
0.238,-0.878,-0.294,-0.671,-2.686,-12.024
0.229,-0.884,-0.288,1.892,-2.136,-10.742
0.206,-0.912,-0.267,5.859,-2.380,-9.949
0.184,-0.940,-0.252,8.423,-1.709,-10.132
0.168,-0.959,-0.248,8.911,-0.916,-11.292
0.165,-0.962,-0.248,7.324,-0.183,-13.123
0.168,-0.936,-0.258,4.822,0.061,-14.221
0.181,-0.927,-0.276,2.380,-0.549,-14.038
0.178,-0.924,-0.278,0.549,-1.282,-12.451
0.164,-0.915,-0.281,-0.244,-1.221,-9.583
0.166,-0.913,-0.292,0.183,-0.244,-7.202
0.157,-0.898,-0.282,2.869,0.793,-4.578
0.156,-0.898,-0.270,6.165,1.465,-3.723
0.169,-0.925,-0.260,8.118,1.892,-3.784
0.165,-0.957,-0.234,9.277,2.319,-4.150
0.164,-0.980,-0.212,8.484,3.662,-5.066
0.176,-1.001,-0.209,6.104,4.883,-6.348
0.170,-1.003,-0.193,3.845,4.089,-7.019
0.165,-1.000,-0.187,0.671,2.625,-8.118
0.174,-0.985,-0.205,-2.808,1.465,-9.705
0.171,-0.959,-0.227,-4.761,-0.610,-10.681
0.169,-0.934,-0.255,-4.639,-2.930,-10.864
0.165,-0.917,-0.280,-2.441,-4.272,-10.437
0.158,-0.904,-0.289,1.038,-5.005,-9.155
0.155,-0.895,-0.288,4.517,-4.517,-8.301
0.157,-0.898,-0.283,6.958,-3.418,-7.324
0.164,-0.914,-0.271,7.996,-2.563,-6.470
0.174,-0.930,-0.263,7.019,-1.526,-4.883
0.168,-0.937,-0.250,4.272,-0.244,-3.418
0.162,-0.941,-0.246,1.221,0.977,-2.686
0.161,-0.940,-0.250,-0.916,1.343,-3.174
0.159,-0.933,-0.255,-2.014,0.122,-4.272
0.160,-0.935,-0.263,-1.770,-1.160,-5.249
0.155,-0.935,-0.274,-0.854,-1.953,-5.432
0.150,-0.937,-0.286,0.366,-2.808,-5.615
0.150,-0.940,-0.299,1.953,-4.150,-5.554
0.136,-0.932,-0.293,4.272,-4.456,-4.639
0.127,-0.932,-0.292,5.981,-3.540,-3.967
0.127,-0.934,-0.294,7.385,-1.892,-3.418
0.123,-0.954,-0.282,8.240,-0.854,-3.052
0.122,-0.977,-0.275,7.019,0.061,-1.953
0.118,-0.990,-0.271,3.906,1.648,-0.488
0.118,-0.995,-0.266,0.854,2.991,0.122
0.117,-1.000,-0.261,-1.648,4.028,-0.732
0.128,-1.001,-0.262,-2.869,4.395,-2.625
0.137,-0.996,-0.263,-2.808,3.479,-4.089
0.137,-0.993,-0.262,-1.465,1.770,-5.371
0.134,-0.990,-0.261,-0.061,0.122,-6.592
0.129,-0.989,-0.263,0.793,-1.465,-7.568
0.121,-0.980,-0.269,1.465,-2.563,-7.507
0.120,-0.973,-0.281,1.099,-2.625,-6.775
0.118,-0.968,-0.289,0.610,-1.648,-5.249
0.111,-0.967,-0.284,0.793,0.061,-3.296
0.108,-0.971,-0.273,0.366,2.014,-2.563
0.109,-0.979,-0.267,-0.061,3.174,-2.319
0.123,-0.975,-0.273,-0.305,3.540,-2.563
0.129,-0.960,-0.268,0.793,2.747,-2.808
0.134,-0.957,-0.267,2.380,0.916,-3.052
0.138,-0.958,-0.267,3.418,-1.099,-3.540
0.141,-0.965,-0.272,3.479,-2.441,-3.906
0.132,-0.969,-0.270,3.235,-2.441,-3.235
0.122,-0.976,-0.269,1.648,-1.404,-3.113
0.117,-0.975,-0.273,-0.366,0.000,-2.930
0.111,-0.968,-0.270,-1.709,1.221,-2.441
0.114,-0.963,-0.281,-2.563,1.892,-2.380
0.115,-0.954,-0.283,-2.136,1.892,-2.747
0.119,-0.957,-0.285,-1.038,0.732,-3.296
0.112,-0.962,-0.283,0.488,-0.427,-3.357
0.114,-0.964,-0.291,1.892,-0.732,-2.991
0.113,-0.965,-0.288,3.357,-0.671,-2.930
0.110,-0.967,-0.279,4.822,-0.671,-3.235
0.111,-0.981,-0.270,5.615,-1.282,-3.784
0.110,-0.997,-0.266,5.554,-1.831,-3.723
0.105,-1.001,-0.265,3.906,-1.221,-3.174
0.107,-0.993,-0.271,1.404,-0.183,-3.174
0.112,-0.978,-0.282,-0.854,-0.122,-3.235
1.251,-1.988,-0.835,126.221,-37.720,398.865
1.321,-2.149,-1.001,94.299,-22.522,391.846
1.308,-2.248,-1.106,64.087,-8.728,388.367
1.237,-2.303,-1.124,38.513,5.188,381.775
1.141,-2.382,-1.040,21.912,22.766,367.859
1.056,-2.432,-0.855,17.578,43.335,343.628
0.975,-2.500,-0.589,21.057,66.101,310.608
0.886,-2.628,-0.427,28.076,86.548,276.550
0.944,-2.708,-0.224,35.339,93.689,248.474
0.745,-2.979,-0.021,43.579,86.792,221.985
0.607,-3.188,0.265,37.231,73.303,193.665
0.347,-3.304,0.294,26.428,55.420,165.527
0.156,-3.036,0.234,4.089,40.833,129.028
0.121,-2.695,0.179,-16.235,8.789,66.772
0.145,-2.239,0.086,-28.015,-25.757,4.761
0.195,-1.804,-0.114,-30.334,-47.607,-31.799
0.168,-1.461,-0.256,-20.874,-61.401,-45.837
0.106,-1.252,-0.366,-7.629,-66.833,-44.922
0.072,-1.179,-0.479,4.395,-61.096,-36.499
0.047,-1.188,-0.518,15.076,-48.157,-23.071
0.004,-1.212,-0.458,23.865,-28.687,-5.188
0.015,-1.242,-0.371,25.757,-1.953,9.827
0.095,-1.354,-0.266,22.278,25.208,17.212
0.194,-1.466,-0.158,17.700,43.640,18.005
0.288,-1.562,-0.090,11.414,53.223,14.832
0.312,-1.536,-0.012,5.615,53.406,8.179
0.345,-1.502,0.022,1.221,43.579,-3.052
0.371,-1.424,0.005,-4.272,26.794,-17.334
0.403,-1.315,-0.079,-8.118,6.470,-28.259
0.381,-1.197,-0.163,-6.042,-14.771,-32.715
0.309,-1.089,-0.241,-0.244,-31.006,-31.189
0.229,-1.011,-0.307,6.348,-38.391,-27.832
0.167,-0.972,-0.349,12.146,-37.598,-25.818
0.136,-0.958,-0.378,16.479,-30.823,-23.804
0.120,-0.958,-0.381,19.348,-20.325,-21.301
0.123,-0.971,-0.368,19.470,-8.850,-19.104
0.136,-0.980,-0.332,16.968,1.282,-18.982
0.172,-0.992,-0.302,11.475,9.644,-20.508
0.220,-1.001,-0.284,4.333,15.137,-21.667
0.261,-1.010,-0.267,-2.563,16.846,-22.278
0.296,-1.005,-0.264,-8.484,16.113,-21.973
0.320,-1.000,-0.271,-11.353,12.939,-21.057
0.348,-0.988,-0.292,-10.376,6.897,-19.836
0.284,-0.937,-0.281,-6.104,0.122,-17.639
0.296,-0.925,-0.298,0.977,-5.066,-13.428
0.270,-0.914,-0.317,7.263,-8.545,-9.705
0.237,-0.903,-0.321,12.085,-11.292,-7.385
0.220,-0.913,-0.328,16.235,-12.695,-7.263
0.213,-0.929,-0.324,17.151,-12.024,-7.874
0.202,-0.950,-0.313,15.503,-9.949,-6.897
0.189,-0.978,-0.293,10.925,-6.958,-6.470
0.186,-0.985,-0.284,4.395,-3.418,-5.676
0.187,-0.967,-0.293,-2.319,0.305,-4.944
0.199,-0.948,-0.305,-6.958,3.296,-5.249
0.218,-0.930,-0.325,-8.362,4.883,-5.737
0.224,-0.921,-0.324,-6.287,4.761,-5.859
0.226,-0.929,-0.317,-2.136,3.174,-7.080
0.229,-0.944,-0.312,2.686,1.221,-8.240
0.232,-0.961,-0.303,7.019,-0.610,-7.935
0.223,-0.976,-0.295,9.521,-2.319,-6.531
0.213,-0.987,-0.294,9.705,-4.028,-5.493
0.204,-1.001,-0.290,8.423,-5.066,-4.517
0.189,-1.010,-0.292,6.042,-4.700,-3.906
0.176,-1.010,-0.293,3.113,-3.540,-4.333
0.167,-1.002,-0.294,0.366,-1.770,-6.165
0.179,-0.988,-0.306,-2.136,0.000,-8.545
0.188,-0.968,-0.313,-3.723,1.282,-9.827
0.195,-0.942,-0.319,-3.967,1.404,-10.071
0.198,-0.928,-0.328,-3.540,1.221,-10.315
0.200,-0.927,-0.333,-2.136,-0.183,-10.559
0.201,-0.930,-0.323,0.061,-1.526,-10.376
0.197,-0.941,-0.315,2.014,-2.075,-9.460
0.196,-0.938,-0.301,3.723,-1.099,-7.751
0.205,-0.942,-0.303,3.479,0.183,-6.226
0.216,-0.944,-0.306,3.357,0.916,-4.761
0.204,-0.940,-0.292,3.662,0.793,-3.479
0.200,-0.942,-0.285,3.601,0.305,-3.418
0.199,-0.944,-0.290,3.357,0.244,-4.028
0.197,-0.949,-0.286,2.747,0.000,-4.944
0.192,-0.953,-0.281,1.953,-0.366,-5.493
0.188,-0.958,-0.282,0.671,-0.122,-5.981
0.183,-0.948,-0.283,-1.160,0.854,-6.470
0.188,-0.938,-0.295,-2.014,1.343,-6.775
0.187,-0.927,-0.307,-1.953,0.916,-7.080
0.183,-0.918,-0.317,-0.549,0.549,-6.714
0.183,-0.925,-0.324,1.343,0.183,-6.653
0.189,-0.924,-0.328,2.991,-0.061,-6.592
0.193,-0.932,-0.322,4.150,0.366,-6.104
0.195,-0.931,-0.307,4.761,1.099,-4.150
0.188,-0.934,-0.291,4.456,1.953,-2.625
0.183,-0.950,-0.278,3.052,2.502,-2.319
0.183,-0.962,-0.279,1.404,2.380,-2.197
0.182,-0.964,-0.282,0.427,2.014,-2.136
0.172,-0.962,-0.282,0.061,0.916,-2.563
0.170,-0.961,-0.290,0.305,0.183,-2.808
0.170,-0.965,-0.300,0.244,-0.305,-3.113
0.166,-0.960,-0.306,-0.061,-0.061,-3.357
0.168,-0.952,-0.317,-0.549,0.610,-3.662
0.172,-0.945,-0.326,0.000,1.404,-3.845
0.177,-0.946,-0.324,1.648,1.770,-3.540
0.159,-0.934,-0.323,2.502,1.953,-3.479
0.152,-0.940,-0.306,4.456,2.441,-2.991
0.153,-0.951,-0.311,6.104,3.235,-3.052
0.162,-0.959,-0.305,6.165,4.150,-3.418
0.170,-0.969,-0.304,5.615,4.639,-3.418
0.176,-0.978,-0.291,4.272,4.639,-3.235
0.177,-0.990,-0.282,2.075,3.845,-2.930
0.187,-0.990,-0.279,-0.671,2.869,-2.563
0.183,-0.992,-0.280,-2.991,1.770,-2.197
0.175,-0.982,-0.283,-3.601,-0.244,-2.136
0.174,-0.977,-0.299,-3.113,-2.014,-2.441
0.149,-0.952,-0.315,-0.671,-3.174,-3.052
0.145,-0.964,-0.308,2.258,-3.296,-3.296
0.142,-0.966,-0.316,3.296,-1.404,-3.967
0.147,-0.966,-0.308,3.296,0.549,-3.723
0.152,-0.964,-0.309,2.747,1.465,-3.113
0.152,-0.958,-0.305,2.136,1.526,-2.197
0.156,-0.964,-0.301,1.221,1.770,-2.014
0.160,-0.974,-0.298,0.305,2.075,-2.014
1.579,-2.314,-0.933,87.646,19.714,497.437
1.729,-2.526,-1.137,101.990,13.977,485.413
1.719,-2.690,-1.207,126.404,-0.305,457.703
1.672,-2.893,-1.209,152.466,-20.691,418.823
1.523,-3.088,-1.145,171.326,-37.170,381.897
1.280,-3.224,-1.032,180.176,-44.006,348.267
1.016,-3.254,-0.828,172.485,-41.016,313.171
0.806,-3.234,-0.599,139.954,-25.146,278.442
0.679,-3.143,-0.411,87.891,2.319,252.380
0.676,-3.015,-0.325,30.518,32.898,238.586
0.720,-2.845,-0.306,-18.494,56.274,232.117
0.654,-2.643,-0.272,-53.833,65.430,225.647
0.480,-2.458,-0.231,-67.139,61.340,214.844
0.446,-2.234,-0.166,-63.538,49.500,193.237
0.370,-2.195,-0.210,-44.617,40.466,169.128
0.237,-2.227,-0.121,-18.616,22.278,128.662
0.172,-2.160,-0.110,0.916,3.967,87.341
0.186,-2.057,-0.129,13.000,-8.545,53.406
0.186,-1.889,-0.172,19.165,-19.958,28.442
0.141,-1.651,-0.214,19.348,-29.114,12.817
0.117,-1.494,-0.274,20.935,-36.255,2.319
0.125,-1.366,-0.342,21.423,-39.917,-4.822
0.094,-1.254,-0.372,23.437,-40.894,-6.287
0.107,-1.197,-0.387,26.245,-39.368,-3.113
0.097,-1.182,-0.365,27.466,-31.860,2.625
0.108,-1.209,-0.343,26.062,-18.799,9.705
0.086,-1.267,-0.286,23.132,-4.578,15.442
0.165,-1.290,-0.260,15.442,11.902,19.348
0.174,-1.349,-0.192,8.484,22.522,19.104
0.238,-1.355,-0.171,-0.549,27.405,19.104
0.234,-1.327,-0.144,-10.559,28.076,17.273
0.273,-1.310,-0.154,-15.747,21.606,12.878
0.300,-1.237,-0.175,-17.883,10.681,7.080
0.277,-1.164,-0.226,-16.418,-2.563,-0.366
0.295,-1.121,-0.287,-7.507,-16.296,-6.165
0.261,-1.079,-0.326,4.150,-27.039,-10.437
0.237,-1.039,-0.359,15.686,-31.921,-12.207
0.202,-1.006,-0.373,24.841,-30.701,-13.672
0.197,-0.998,-0.387,31.494,-25.513,-15.015
0.186,-0.990,-0.378,36.072,-19.226,-15.259
0.201,-1.000,-0.358,36.987,-13.367,-15.503
0.215,-1.042,-0.338,33.203,-8.606,-15.259
0.219,-1.070,-0.310,24.963,-5.005,-13.672
0.226,-1.076,-0.299,14.221,-1.465,-11.230
0.239,-1.054,-0.303,3.845,0.671,-9.521
0.249,-1.021,-0.306,-4.395,1.343,-9.277
0.257,-0.983,-0.315,-7.996,-0.183,-10.132
0.257,-0.932,-0.332,-6.653,-1.831,-10.437
0.260,-0.909,-0.353,-1.953,-3.601,-11.719
0.250,-0.885,-0.365,5.493,-5.310,-12.756
0.242,-0.877,-0.369,14.893,-6.409,-13.794
0.245,-0.887,-0.369,23.926,-7.019,-15.137
0.243,-0.908,-0.359,31.372,-7.507,-16.357
0.238,-0.929,-0.329,35.339,-7.202,-17.700
0.240,-0.966,-0.319,35.156,-6.042,-18.372
0.246,-0.979,-0.310,30.334,-4.089,-17.273
0.244,-0.976,-0.312,23.315,-1.709,-14.954
0.238,-0.959,-0.310,17.517,0.793,-12.512
0.231,-0.940,-0.319,13.977,2.930,-11.963
0.240,-0.925,-0.329,13.306,4.272,-13.000
0.247,-0.917,-0.340,15.198,4.211,-14.771
0.252,-0.910,-0.349,19.348,2.197,-16.846
0.261,-0.903,-0.363,24.719,-0.854,-19.043
0.255,-0.893,-0.365,31.311,-5.188,-19.958
0.242,-0.897,-0.369,37.170,-8.972,-20.691
0.237,-0.919,-0.375,40.833,-12.146,-21.301
0.230,-0.932,-0.371,40.894,-14.343,-20.813
0.213,-0.945,-0.373,38.452,-14.648,-18.494
0.200,-0.951,-0.371,33.203,-12.451,-15.442
0.196,-0.971,-0.382,26.245,-8.484,-12.268
0.182,-0.981,-0.369,18.188,-4.456,-8.789
0.178,-0.983,-0.368,8.850,-0.061,-5.493
0.177,-0.985,-0.369,-0.366,3.723,-3.357
0.173,-0.966,-0.371,-8.667,6.714,-2.075
0.175,-0.938,-0.380,-14.832,8.972,-1.648
0.191,-0.910,-0.395,-17.639,9.277,-2.686
0.190,-0.890,-0.409,-15.808,6.836,-4.089
0.188,-0.891,-0.409,-11.719,2.930,-5.798
0.184,-0.882,-0.415,-6.836,-0.305,-6.592
0.186,-0.911,-0.405,-3.113,-1.709,-6.409
0.157,-0.920,-0.393,-2.747,-0.549,-5.554
0.164,-0.931,-0.373,-3.479,2.075,-3.357
0.172,-0.944,-0.371,-5.127,5.554,-1.282
0.176,-0.953,-0.377,-8.667,9.583,0.305
0.173,-0.958,-0.372,-10.437,11.597,1.526
0.178,-0.978,-0.363,-11.169,12.207,0.244
0.213,-0.972,-0.359,-11.597,11.780,-1.770
0.185,-0.948,-0.349,-12.634,10.132,-3.540
0.205,-0.949,-0.363,-11.780,8.179,-5.127
0.198,-0.938,-0.379,-9.705,5.798,-5.798
0.188,-0.924,-0.389,-6.897,4.028,-5.371
0.180,-0.919,-0.393,-3.601,2.930,-5.188
0.174,-0.923,-0.385,-0.549,2.686,-4.822
0.172,-0.933,-0.380,1.404,3.662,-4.395
0.180,-0.943,-0.379,1.709,5.005,-4.028
0.184,-0.946,-0.368,1.160,5.615,-3.357
0.184,-0.954,-0.362,0.122,5.615,-2.441
0.180,-0.950,-0.357,-0.854,5.249,-2.014
0.181,-0.953,-0.355,-1.709,4.944,-2.136
0.182,-0.963,-0.352,-2.869,4.456,-2.808
0.177,-0.965,-0.349,-4.456,3.967,-2.930
0.167,-0.957,-0.343,-5.920,4.150,-2.747
0.165,-0.951,-0.349,-7.324,5.188,-2.808
0.165,-0.944,-0.351,-8.484,6.653,-3.113
0.170,-0.937,-0.346,-8.789,8.240,-3.540
0.186,-0.933,-0.345,-8.850,9.583,-3.784
0.197,-0.926,-0.339,-8.850,10.254,-3.723
0.204,-0.923,-0.332,-8.789,10.132,-3.235
0.202,-0.919,-0.328,-8.545,9.705,-2.441
0.194,-0.912,-0.326,-7.629,8.484,-1.953
0.193,-0.916,-0.333,-6.165,7.019,-2.319
0.188,-0.923,-0.340,-4.272,5.249,-2.991
0.174,-0.927,-0.337,-2.136,2.869,-3.296
0.166,-0.941,-0.337,-1.160,1.099,-3.540
0.158,-0.951,-0.336,-1.892,0.000,-3.906
0.149,-0.950,-0.345,-3.662,0.305,-3.967
0.151,-0.943,-0.361,-5.859,1.282,-3.967
0.154,-0.935,-0.370,-7.141,2.502,-4.211
0.154,-0.927,-0.374,-7.202,4.150,-4.028
2.415,-1.753,-1.320,43.457,-0.610,754.944
2.942,-2.650,-1.778,25.391,38.757,756.287
3.030,-3.562,-1.945,19.287,90.088,760.193
3.505,-3.448,-2.973,25.940,138.062,757.263
3.641,-3.737,-3.264,121.643,107.788,717.346
3.520,-4.000,-3.576,254.822,72.205,632.874
2.975,-4.000,-3.356,402.161,41.626,495.056
1.916,-4.000,-1.796,516.785,17.517,356.079
1.206,-4.000,-0.179,520.874,56.885,276.672
0.989,-4.000,0.714,380.554,137.207,270.325
1.226,-4.000,0.742,153.748,196.350,291.931
0.649,-4.000,0.796,-78.430,189.331,296.082
0.372,-4.000,0.452,-227.783,112.488,267.395
0.314,-3.068,0.019,-285.156,34.851,176.025
0.296,-2.135,-0.332,-251.831,-42.114,62.500
0.175,-1.688,-0.471,-136.047,-97.839,-25.940
0.055,-1.539,-0.556,-17.639,-109.802,-83.740
0.023,-1.480,-0.657,62.683,-96.252,-123.840
0.049,-1.410,-0.692,104.248,-79.712,-141.846
0.040,-1.279,-0.610,113.770,-60.791,-133.545
0.018,-1.177,-0.446,102.783,-34.790,-104.370
0.088,-1.158,-0.329,83.252,-3.052,-65.857
0.165,-1.250,-0.259,62.439,27.771,-29.602
0.261,-1.394,-0.208,43.335,50.354,-2.380
0.288,-1.490,-0.102,25.757,59.387,13.123
0.320,-1.543,-0.045,6.165,59.387,17.395
0.346,-1.449,-0.021,-13.672,54.016,13.000
0.379,-1.309,-0.035,-29.236,43.274,2.808
0.452,-1.103,-0.105,-37.231,29.175,-10.437
0.450,-0.909,-0.173,-35.706,12.878,-26.062
0.481,-0.775,-0.266,-21.973,-5.249,-39.551
0.458,-0.663,-0.307,-1.770,-21.790,-49.500
0.432,-0.616,-0.338,18.250,-33.447,-56.152
0.411,-0.629,-0.348,34.668,-37.903,-58.411
0.386,-0.669,-0.340,45.349,-36.682,-54.626
0.373,-0.716,-0.325,47.852,-32.166,-46.631
0.368,-0.762,-0.310,42.114,-26.428,-36.865
0.362,-0.801,-0.305,30.945,-20.935,-25.513
0.364,-0.824,-0.294,17.578,-17.090,-15.015
0.354,-0.827,-0.305,5.432,-14.893,-6.042
0.342,-0.819,-0.319,-2.869,-14.587,-0.366
0.318,-0.815,-0.344,-6.592,-16.663,1.831
0.296,-0.812,-0.385,-5.615,-19.470,0.488
0.274,-0.810,-0.421,0.366,-23.499,-3.418
0.243,-0.808,-0.434,10.498,-27.344,-9.094
0.237,-0.836,-0.448,21.973,-29.846,-16.357
0.228,-0.859,-0.446,31.860,-31.128,-22.278
0.220,-0.883,-0.437,38.208,-31.799,-26.672
0.211,-0.903,-0.427,39.734,-31.372,-29.785
0.211,-0.926,-0.406,36.499,-30.396,-32.410
0.208,-0.955,-0.388,27.954,-29.297,-34.790
0.212,-0.990,-0.388,14.648,-27.649,-35.583
0.201,-0.997,-0.394,0.061,-26.367,-34.912
0.203,-1.003,-0.406,-14.099,-24.902,-34.607
0.209,-0.997,-0.430,-25.635,-23.376,-34.180
0.195,-0.964,-0.439,-31.616,-23.376,-32.898
0.183,-0.943,-0.449,-32.593,-24.536,-31.982
0.164,-0.917,-0.468,-29.175,-25.879,-31.433
0.152,-0.896,-0.472,-21.484,-26.184,-31.555
0.157,-0.884,-0.480,-12.451,-25.085,-32.410
0.167,-0.881,-0.487,-2.869,-23.315,-32.715
0.137,-0.885,-0.442,6.042,-21.240,-32.959
0.172,-0.921,-0.441,13.550,-18.372,-31.616
0.182,-0.941,-0.420,15.869,-14.526,-29.663
0.189,-0.956,-0.403,15.137,-12.268,-26.489
0.199,-0.959,-0.388,11.230,-10.071,-23.132
0.211,-0.970,-0.387,5.066,-8.057,-19.592
0.210,-0.960,-0.393,-1.404,-6.592,-15.503
0.196,-0.969,-0.402,-6.104,-6.042,-11.536
0.190,-0.948,-0.411,-8.545,-5.554,-8.545
0.173,-0.943,-0.408,-8.606,-4.944,-8.362
0.196,-0.920,-0.430,-7.385,-3.784,-8.972
0.191,-0.905,-0.430,-3.357,-3.113,-8.179
0.182,-0.889,-0.426,1.343,-3.174,-7.080
0.179,-0.891,-0.432,6.165,-3.113,-6.226
0.166,-0.902,-0.429,10.376,-3.662,-6.226
0.151,-0.906,-0.426,13.306,-4.639,-6.775
0.136,-0.909,-0.420,14.526,-4.700,-8.057
0.141,-0.927,-0.422,14.221,-3.418,-8.972
0.137,-0.938,-0.412,12.024,-1.831,-8.606
0.136,-0.944,-0.404,8.057,0.488,-6.836
0.140,-0.942,-0.408,3.296,3.479,-4.639
0.149,-0.935,-0.422,-0.732,5.615,-3.052
0.157,-0.915,-0.428,-3.052,6.958,-2.441
0.151,-0.908,-0.420,-3.418,6.409,-2.625
0.144,-0.896,-0.414,-1.526,5.188,-2.869
0.139,-0.894,-0.408,0.732,4.456,-3.296
0.144,-0.899,-0.406,2.380,4.150,-3.479
0.139,-0.903,-0.390,3.601,4.456,-3.296
0.142,-0.912,-0.384,3.540,5.798,-2.686
0.143,-0.913,-0.375,3.052,8.057,-2.197
0.164,-0.928,-0.375,2.136,9.644,-2.075
0.167,-0.935,-0.368,1.038,10.498,-1.526
0.167,-0.937,-0.354,0.000,10.498,-0.854
0.179,-0.947,-0.352,-1.404,10.010,-1.465
0.185,-0.951,-0.349,-2.869,9.644,-2.197
0.186,-0.941,-0.355,-3.540,8.789,-2.380
0.183,-0.934,-0.361,-3.967,7.080,-2.869
0.174,-0.927,-0.365,-4.211,5.127,-3.174
0.162,-0.927,-0.374,-3.967,3.418,-3.113
0.152,-0.929,-0.384,-3.906,2.625,-3.113
0.138,-0.933,-0.387,-4.211,3.174,-3.784
0.137,-0.933,-0.385,-4.822,4.517,-4.578
0.134,-0.923,-0.386,-5.920,6.348,-4.700
0.141,-0.921,-0.395,-7.263,8.606,-5.066
0.146,-0.923,-0.402,-7.812,10.376,-5.127
0.153,-0.919,-0.402,-7.690,10.925,-4.578
0.158,-0.924,-0.397,-6.897,10.315,-3.723
0.151,-0.925,-0.385,-5.310,9.644,-2.014
0.142,-0.917,-0.377,-3.967,9.094,-0.732
0.190,-0.935,-0.394,-3.418,8.057,-0.916
0.110,-0.886,-0.365,-4.517,7.202,-1.465
0.149,-0.904,-0.382,-2.991,5.432,-0.977
0.132,-0.907,-0.388,-2.197,4.700,-0.854
0.126,-0.920,-0.393,-1.709,4.028,-0.610
0.116,-0.934,-0.391,-0.732,4.333,-0.244
0.108,-0.951,-0.381,-0.061,6.042,0.000
0.111,-0.962,-0.371,-0.061,9.216,-0.244
0.114,-0.963,-0.353,-0.793,11.841,-0.854
1.841,1.964,-0.346,57.739,47.729,215.942
2.077,2.046,-0.410,74.768,47.852,261.292
2.294,1.934,-0.473,100.159,47.913,321.228
2.439,1.664,-0.519,123.901,43.579,390.686
2.425,1.302,-0.504,138.550,27.466,460.022
2.300,0.894,-0.476,140.503,2.258,523.010
2.110,0.459,-0.486,130.066,-24.414,581.116
1.834,0.105,-0.449,118.530,-48.157,634.338
1.524,-0.181,-0.408,106.445,-62.683,677.734
1.272,-0.520,-0.380,94.238,-65.857,708.984
1.016,-1.112,-0.352,80.811,-53.040,727.173
0.853,-1.848,-0.341,56.152,-6.958,728.699
0.692,-2.099,-0.391,26.550,73.242,721.191
0.809,-2.140,-0.618,0.854,149.231,703.064
1.232,-2.124,-1.022,4.456,190.247,676.208
1.634,-2.377,-1.350,72.449,181.580,635.254
1.902,-2.812,-1.531,199.768,123.474,572.876
2.082,-3.568,-1.484,332.031,35.950,492.981
1.918,-4.000,-1.200,417.786,-47.119,427.856
1.406,-4.000,-0.812,425.415,-96.558,395.081
0.902,-4.000,-0.546,347.717,-98.572,376.221
0.580,-4.000,-0.526,218.811,-67.261,354.431
0.343,-4.000,-0.581,94.666,-26.428,336.792
0.195,-3.847,-0.551,6.836,8.301,324.585
0.167,-3.464,-0.490,-38.452,35.400,311.218
0.106,-3.210,-0.346,-51.025,57.556,290.771
0.042,-2.992,-0.145,-45.471,74.036,262.024
0.015,-2.838,-0.007,-35.767,82.764,222.961
-0.003,-2.736,0.051,-27.405,81.604,174.377
0.018,-2.435,0.177,-20.264,66.467,124.390
0.027,-2.355,0.001,-9.827,40.283,80.811
0.008,-2.049,0.002,-9.094,13.367,28.992
0.076,-1.760,-0.124,-1.953,-15.991,-8.606
0.061,-1.463,-0.212,7.141,-42.908,-30.640
0.040,-1.274,-0.304,17.822,-62.988,-39.124
0.033,-1.162,-0.378,30.029,-71.533,-34.607
0.005,-1.135,-0.393,40.588,-68.298,-21.057
-0.021,-1.146,-0.383,48.645,-54.871,-5.249
-0.013,-1.159,-0.368,51.208,-33.081,8.179
0.022,-1.175,-0.325,49.622,-10.254,16.724
0.085,-1.192,-0.269,44.617,7.935,20.264
0.167,-1.190,-0.232,35.828,20.203,21.118
0.231,-1.160,-0.202,26.794,24.353,20.325
0.308,-1.130,-0.197,19.348,20.874,17.151
0.304,-1.063,-0.192,14.465,11.169,13.184
0.313,-1.005,-0.216,13.611,-2.686,10.193
0.297,-0.965,-0.266,12.939,-16.418,7.385
0.264,-0.928,-0.318,13.489,-26.978,5.554
0.235,-0.907,-0.370,14.832,-31.738,4.578
0.207,-0.899,-0.392,16.724,-30.640,4.211
0.180,-0.893,-0.388,18.433,-24.170,5.188
0.172,-0.896,-0.376,17.822,-13.855,7.019
0.192,-0.897,-0.363,15.442,-3.906,8.606
0.217,-0.902,-0.341,11.841,2.502,9.827
0.236,-0.910,-0.321,8.484,4.578,11.108
0.250,-0.911,-0.306,5.737,4.456,12.146
0.263,-0.927,-0.304,3.479,2.991,12.390
0.257,-0.943,-0.305,2.991,-0.122,12.390
0.243,-0.966,-0.306,2.502,-2.869,10.498
0.234,-0.994,-0.303,0.977,-4.578,7.507
0.235,-1.012,-0.299,-1.221,-5.188,5.188
0.230,-1.025,-0.287,-3.418,-5.127,2.869
0.229,-1.027,-0.289,-5.188,-3.601,1.404
0.228,-1.016,-0.293,-5.920,-2.319,0.854
0.230,-1.011,-0.302,-5.615,-1.770,-0.366
0.218,-1.001,-0.295,-4.883,-2.502,-1.953
0.223,-1.005,-0.304,-4.578,-3.967,-3.357
0.217,-0.995,-0.309,-4.578,-5.615,-4.944
0.208,-0.990,-0.321,-4.089,-7.874,-5.920
0.200,-0.974,-0.334,-2.441,-9.460,-5.981
0.188,-0.965,-0.335,-0.488,-10.498,-6.470
0.177,-0.963,-0.331,0.671,-11.841,-7.629
0.177,-0.967,-0.338,-0.061,-12.085,-9.094
0.182,-0.972,-0.356,-1.770,-10.681,-9.583
0.186,-0.972,-0.365,-2.930,-8.545,-8.301
0.192,-0.968,-0.364,-3.662,-5.066,-6.042
0.199,-0.968,-0.364,-3.540,-0.610,-4.150
0.207,-0.958,-0.355,-3.235,3.052,-2.808
0.222,-0.955,-0.344,-3.296,5.310,-2.075
0.258,-0.969,-0.346,-2.625,5.859,-1.160
0.210,-0.946,-0.325,-1.831,4.395,-0.366
0.235,-0.966,-0.318,0.366,1.465,0.183
0.221,-0.972,-0.312,2.014,-1.526,0.183
0.216,-0.969,-0.314,2.808,-3.967,-0.061
0.211,-0.971,-0.325,2.808,-5.615,-0.916
0.197,-0.965,-0.331,2.380,-6.592,-1.892
0.187,-0.970,-0.338,2.441,-6.592,-2.686
0.180,-0.981,-0.335,2.258,-5.005,-3.662
0.183,-0.980,-0.330,2.075,-1.953,-4.333
0.187,-0.971,-0.322,0.732,1.221,-5.005
0.197,-0.960,-0.317,-0.916,3.540,-5.432
0.212,-0.957,-0.312,-2.075,5.310,-6.042
0.225,-0.950,-0.306,-1.587,5.859,-5.493
0.233,-0.952,-0.298,-0.854,5.798,-5.005
0.234,-0.963,-0.279,-0.183,4.211,-4.822
0.232,-0.974,-0.269,0.122,1.343,-4.211
0.228,-0.986,-0.266,-0.671,-1.526,-3.906
0.216,-0.987,-0.263,-1.892,-4.333,-4.395
0.210,-0.983,-0.267,-3.296,-6.592,-5.798
0.210,-0.980,-0.279,-4.639,-7.935,-7.812
0.204,-0.969,-0.285,-5.005,-8.240,-9.033
0.205,-0.954,-0.294,-4.761,-7.935,-10.010
0.203,-0.940,-0.297,-3.845,-6.592,-10.803
0.207,-0.928,-0.307,-1.831,-5.737,-10.864
0.207,-0.916,-0.303,0.977,-5.249,-9.949
0.209,-0.922,-0.310,3.113,-4.456,-8.728
0.208,-0.940,-0.308,5.127,-3.540,-6.958
0.198,-0.959,-0.305,6.226,-2.502,-5.005
0.192,-0.972,-0.299,6.165,-1.465,-3.906
0.198,-0.983,-0.298,5.249,-0.671,-3.906
0.203,-0.980,-0.295,3.723,-0.366,-4.089
0.211,-0.977,-0.294,2.319,-0.977,-4.639
0.215,-0.963,-0.301,1.282,-2.014,-4.700
0.219,-0.954,-0.307,0.977,-3.540,-5.066
0.214,-0.953,-0.312,1.343,-5.249,-5.127
0.195,-0.948,-0.313,2.014,-6.897,-5.249
0.182,-0.954,-0.317,2.380,-7.263,-5.676
0.176,-0.950,-0.332,2.502,-6.653,-6.104
0.173,-0.942,-0.342,3.113,-6.165,-6.226
1.222,-2.038,-1.084,33.325,-41.443,541.870
1.195,-2.176,-1.334,48.645,-65.430,552.307
1.453,-2.326,-1.391,69.946,-82.947,548.523
1.521,-2.548,-1.620,103.149,-101.135,540.283
1.215,-2.885,-1.598,155.518,-126.160,520.508
0.795,-3.100,-1.375,199.280,-143.616,472.778
0.459,-3.359,-1.049,225.342,-133.301,408.752
0.133,-3.583,-0.632,219.543,-94.055,353.088
-0.058,-3.790,-0.323,175.232,-33.203,315.918
-0.184,-3.873,-0.109,106.079,30.884,298.706
-0.279,-3.901,0.009,26.550,83.801,286.804
-0.336,-3.763,0.099,-43.274,116.943,267.090
-0.261,-3.231,0.086,-97.168,126.038,227.722
-0.178,-2.611,0.078,-134.094,101.807,158.020
-0.030,-1.995,-0.126,-142.883,55.420,80.750
0.087,-1.565,-0.256,-118.530,14.648,21.667
0.182,-1.341,-0.335,-59.570,-31.494,-18.677
0.151,-1.205,-0.377,0.305,-68.665,-39.001
0.118,-1.179,-0.431,47.363,-90.881,-41.321
0.050,-1.200,-0.476,78.735,-98.572,-33.813
-0.016,-1.243,-0.477,90.210,-90.149,-20.874
-0.064,-1.331,-0.448,86.914,-69.031,-8.301
-0.059,-1.418,-0.381,72.815,-39.429,0.549
-0.014,-1.470,-0.328,51.025,-6.897,8.789
0.046,-1.451,-0.267,28.015,21.423,16.541
0.115,-1.394,-0.231,6.470,41.260,21.057
0.200,-1.329,-0.224,-11.047,50.537,20.569
0.257,-1.233,-0.214,-21.057,47.791,17.029
0.286,-1.132,-0.208,-22.034,35.889,12.573
0.284,-1.051,-0.217,-15.686,19.043,7.629
0.259,-1.005,-0.229,-4.578,1.282,2.686
0.224,-0.991,-0.251,7.690,-12.512,-0.977
0.188,-0.997,-0.273,17.273,-20.569,-3.052
0.152,-0.994,-0.284,23.315,-22.949,-4.456
0.109,-0.983,-0.296,25.391,-20.752,-5.981
0.145,-0.970,-0.311,23.560,-15.747,-7.080
0.177,-0.967,-0.279,18.860,-6.470,-6.409
0.172,-0.994,-0.235,14.648,-2.380,-5.859
0.193,-0.958,-0.234,6.531,3.662,-3.357
0.223,-0.949,-0.247,0.122,9.338,-0.549
0.237,-0.932,-0.244,-4.089,10.986,1.160
0.245,-0.925,-0.240,-5.798,9.338,1.465
0.249,-0.935,-0.244,-5.493,4.761,0.061
0.253,-0.940,-0.251,-4.089,-0.488,-1.587
0.227,-0.934,-0.245,-2.747,-6.836,-3.174
0.205,-0.925,-0.254,-2.441,-11.841,-5.127
0.205,-0.926,-0.286,-3.052,-14.160,-7.812
0.189,-0.906,-0.297,-2.686,-14.526,-8.484
0.172,-0.897,-0.303,-1.404,-12.085,-7.324
0.166,-0.900,-0.312,-0.183,-7.019,-5.249
0.164,-0.903,-0.309,0.671,-1.343,-3.174
0.167,-0.921,-0.307,0.305,3.906,-1.892
0.175,-0.938,-0.295,0.061,7.751,-0.732
0.186,-0.951,-0.285,0.244,9.338,0.427
0.193,-0.962,-0.269,0.000,8.545,0.793
0.199,-0.969,-0.262,-0.977,5.493,0.610
0.205,-0.974,-0.267,-2.502,2.075,0.183
0.208,-0.973,-0.265,-4.517,-1.038,-0.793
0.212,-0.977,-0.268,-6.104,-3.540,-1.709
0.207,-0.974,-0.274,-6.287,-5.188,-1.770
0.192,-0.975,-0.278,-5.432,-6.165,-1.648
0.182,-0.965,-0.284,-3.906,-6.531,-2.014
0.184,-0.964,-0.293,-2.869,-6.470,-2.747
0.186,-0.967,-0.306,-1.587,-6.348,-3.113
0.173,-0.960,-0.302,0.427,-6.165,-2.686
0.167,-0.966,-0.302,1.709,-5.249,-2.502
0.174,-0.976,-0.304,2.197,-3.418,-2.808
0.174,-0.979,-0.299,1.160,-1.709,-2.991
0.186,-0.973,-0.297,0.000,-0.854,-2.991
0.202,-0.972,-0.298,-2.014,-0.427,-2.747
0.202,-0.966,-0.290,-3.662,-0.610,-1.526
0.199,-0.975,-0.281,-4.578,-1.709,-0.610
0.203,-0.989,-0.292,-5.615,-2.808,0.427
0.197,-0.988,-0.288,-5.981,-3.662,1.831
0.187,-0.994,-0.283,-5.920,-4.578,2.930
0.174,-0.992,-0.275,-5.371,-4.761,3.113
0.173,-1.000,-0.277,-5.066,-4.028,2.380
0.177,-1.008,-0.281,-5.066,-3.235,1.282
0.167,-1.005,-0.273,-4.517,-3.113,0.366
0.166,-1.001,-0.278,-4.395,-2.563,-0.610
0.171,-1.003,-0.284,-4.761,-1.953,-2.014
0.175,-1.000,-0.285,-5.432,-1.465,-3.052
0.184,-1.000,-0.284,-6.165,-1.282,-3.296
0.186,-0.996,-0.278,-6.653,-1.282,-3.296
0.189,-0.995,-0.277,-6.897,-0.916,-2.930
0.196,-0.996,-0.282,-7.263,-0.610,-2.441
0.199,-0.995,-0.290,-7.080,-1.221,-2.197
0.196,-0.992,-0.287,-6.287,-2.502,-2.625
0.182,-0.994,-0.287,-5.188,-4.028,-2.930
0.172,-0.992,-0.289,-4.211,-4.883,-3.418
0.177,-0.996,-0.307,-4.150,-5.127,-4.272
0.172,-0.978,-0.315,-3.601,-5.371,-5.249
0.167,-0.964,-0.313,-2.319,-5.920,-6.042
0.167,-0.967,-0.318,-1.099,-5.676,-6.958
0.161,-0.964,-0.317,0.305,-4.639,-6.714
0.167,-0.952,-0.310,1.404,-3.174,-5.981
0.168,-0.962,-0.304,3.113,-1.892,-5.432
0.177,-0.959,-0.302,2.747,0.305,-4.456
0.179,-0.962,-0.298,2.014,2.136,-3.967
0.183,-0.964,-0.293,1.709,2.563,-3.601
0.182,-0.970,-0.283,1.404,1.709,-3.052
0.178,-0.977,-0.276,1.221,1.038,-2.747
0.170,-0.988,-0.272,0.977,0.427,-2.808
0.160,-0.989,-0.264,0.977,-0.122,-3.113
0.157,-0.985,-0.260,0.793,-0.244,-3.906
0.153,-0.986,-0.260,0.000,-0.366,-5.127
0.154,-0.979,-0.266,-0.427,-0.122,-5.920
0.157,-0.976,-0.273,-0.671,-0.061,-6.775
0.163,-0.976,-0.273,-1.099,-0.122,-7.385
0.169,-0.977,-0.269,-1.465,0.488,-7.080
0.173,-0.964,-0.261,-1.892,1.587,-5.920
0.187,-0.965,-0.266,-2.747,2.686,-4.761
0.199,-0.958,-0.264,-2.869,3.479,-3.418
0.208,-0.959,-0.252,-1.892,3.235,-2.258
0.210,-0.969,-0.247,-0.610,2.014,-0.732
0.202,-0.973,-0.244,1.038,0.366,0.122
0.195,-0.985,-0.245,2.380,-1.892,-0.671
0.182,-0.995,-0.243,2.869,-4.639,-1.709
0.168,-1.000,-0.252,2.747,-6.836,-2.319
-0.663,0.582,-1.759,-28.076,-267.639,-75.439
-0.914,0.660,-1.829,-31.982,-312.988,-85.632
-1.177,0.742,-1.868,-29.663,-357.605,-98.999
-1.424,0.788,-2.019,-22.888,-399.109,-115.723
-1.678,0.792,-2.143,-12.268,-444.580,-135.925
-1.963,0.826,-2.233,3.357,-496.399,-159.973
-2.283,0.830,-2.267,23.010,-549.866,-187.439
-2.669,0.758,-2.317,40.527,-605.225,-216.553
-3.038,0.671,-2.293,46.936,-667.236,-246.460
-3.359,0.498,-2.220,40.894,-728.821,-270.752
-3.683,0.468,-1.947,21.057,-782.166,-284.729
-3.909,0.327,-1.584,-9.216,-823.364,-290.222
-4.000,0.092,-1.272,-51.331,-855.957,-290.405
-4.000,-0.089,-0.833,-98.022,-880.554,-280.701
-4.000,-0.304,-0.322,-109.131,-887.817,-260.376
-4.000,-0.676,0.219,-73.425,-865.173,-233.948
-4.000,-1.032,0.823,-21.179,-808.899,-196.228
-4.000,-1.207,1.134,26.611,-732.483,-150.085
-4.000,-1.315,1.355,70.557,-659.363,-104.370
-4.000,-1.148,1.735,117.126,-598.694,-64.148
-4.000,-0.592,1.716,168.396,-547.607,-41.748
-4.000,-0.136,1.639,193.726,-518.494,-54.810
-4.000,-0.179,1.947,149.109,-514.160,-104.065
-4.000,-0.462,2.486,42.786,-516.846,-151.062
-4.000,-0.826,3.209,-79.163,-504.761,-172.241
-4.000,-1.232,3.765,-149.109,-466.919,-172.668
-3.508,-1.702,4.000,-137.817,-405.151,-159.668
-2.959,-2.111,3.719,-74.402,-315.613,-138.306
-2.525,-2.418,3.134,6.409,-222.412,-108.093
-2.290,-2.422,2.434,61.890,-145.691,-60.181
-2.230,-1.915,1.877,74.463,-95.886,-4.944
-2.116,-1.082,1.606,79.712,-77.332,41.077
-1.876,-0.240,1.588,98.999,-86.243,71.289
-1.589,0.428,1.768,119.934,-98.816,78.430
-1.419,1.006,1.996,139.893,-104.492,67.810
-1.110,1.136,2.240,157.837,-99.487,36.499
-0.845,0.762,2.167,147.583,-74.097,-3.357
-0.771,0.256,1.770,94.604,-32.166,-32.898
-0.823,-0.084,1.304,16.907,10.864,-43.884
-0.962,-0.385,0.855,-47.913,43.945,-47.607
-1.064,-0.678,0.346,-75.439,61.401,-46.814
-1.057,-0.932,-0.088,-66.284,61.523,-39.429
-1.070,-1.021,-0.330,-36.072,51.514,-27.161
-1.053,-1.005,-0.495,0.916,36.804,-11.169
-1.042,-0.850,-0.445,31.250,19.409,3.845
-0.997,-0.613,-0.275,50.415,6.592,14.038
-0.939,-0.489,-0.137,55.420,3.174,15.259
-0.881,-0.424,-0.047,41.809,6.897,11.536
-0.855,-0.459,0.009,16.296,14.343,6.897
-0.846,-0.495,0.066,-10.925,23.560,5.676
-0.870,-0.519,0.140,-28.687,32.166,7.629
-0.919,-0.516,0.083,-29.358,40.039,13.428
-0.989,-0.470,-0.017,-17.517,43.274,22.339
-1.039,-0.362,-0.070,-1.099,37.231,31.311
-1.057,-0.187,-0.066,16.113,24.536,38.635
-1.051,0.030,0.008,29.968,10.254,41.138
-1.034,0.173,0.120,35.950,-1.831,37.354
-0.982,0.243,0.266,30.701,-8.728,28.564
-0.962,0.248,0.391,11.780,-9.460,20.081
-0.954,0.218,0.447,-13.855,-4.578,12.512
-0.960,0.141,0.475,-35.278,0.854,6.042
-0.947,0.036,0.476,-44.800,5.249,1.587
-0.937,-0.087,0.469,-42.847,11.047,-1.160
-0.937,-0.173,0.394,-29.907,17.029,-0.732
-0.941,-0.214,0.266,-13.000,22.766,1.770
-0.961,-0.266,0.139,0.549,26.184,4.150
-0.969,-0.265,0.066,8.057,25.513,6.348
-0.976,-0.196,0.049,11.780,21.973,7.629
-1.000,-0.192,0.013,16.479,18.188,3.601
-0.977,-0.282,-0.012,20.691,12.146,-3.601
-0.951,-0.332,0.024,16.724,5.554,-6.714
-0.941,-0.385,0.038,5.737,1.892,-6.531
-0.924,-0.407,0.065,-6.836,-0.610,-4.150
-0.909,-0.380,0.141,-17.151,-2.441,0.366
-0.901,-0.323,0.188,-18.738,-2.197,5.615
-0.891,-0.298,0.228,-13.489,-0.610,8.606
-0.912,-0.260,0.262,-8.484,1.465,10.803
-0.939,-0.237,0.274,-6.653,4.211,12.573
-0.968,-0.227,0.275,-7.507,6.287,13.184
-0.977,-0.196,0.283,-9.521,6.775,12.695
-0.981,-0.177,0.294,-10.742,7.629,10.620
-0.983,-0.179,0.272,-9.155,8.728,7.385
-0.986,-0.174,0.251,-8.179,9.521,4.761
-0.992,-0.192,0.226,-9.216,9.460,2.991
-0.991,-0.198,0.199,-13.367,8.362,2.258
-0.973,-0.203,0.190,-17.395,6.287,2.075
-0.967,-0.237,0.198,-17.273,4.578,2.014
-0.942,-0.237,0.227,-14.526,4.639,2.380
-0.938,-0.234,0.253,-9.216,5.493,3.845
-0.939,-0.238,0.257,-4.150,7.629,4.944
-0.940,-0.229,0.252,0.183,9.705,5.798
-0.949,-0.230,0.222,3.662,11.169,5.859
-0.955,-0.230,0.178,5.798,11.169,5.310
-0.945,-0.239,0.167,7.263,9.033,3.906
-0.940,-0.230,0.157,6.592,7.019,3.113
-0.943,-0.215,0.154,4.211,5.188,3.113
-0.943,-0.209,0.169,1.648,2.869,2.991
-0.950,-0.214,0.200,-1.221,0.671,3.296
-0.949,-0.233,0.220,-3.418,-0.061,3.418
-0.950,-0.250,0.238,-4.333,-0.488,4.089
-0.951,-0.256,0.239,-3.845,0.061,5.005
-0.943,-0.253,0.242,-1.831,1.038,5.615
-0.943,-0.243,0.244,1.099,2.258,6.226
-0.939,-0.238,0.244,3.967,3.601,6.470
-0.948,-0.219,0.234,4.456,4.883,6.470
-0.960,-0.207,0.188,3.357,5.310,6.714
-0.959,-0.205,0.177,0.549,3.845,5.432
-0.957,-0.212,0.191,-2.869,1.526,3.906
-0.957,-0.229,0.210,-4.883,0.427,2.991
-0.951,-0.245,0.233,-4.578,-0.305,2.441
-0.944,-0.240,0.265,-2.747,-0.183,2.502
-0.950,-0.244,0.271,1.282,0.732,2.380
-0.946,-0.260,0.266,6.775,1.709,2.014
-0.937,-0.267,0.274,10.071,2.869,2.502
-0.933,-0.264,0.282,10.132,4.944,3.662
-0.931,-0.266,0.267,7.568,7.446,4.944
-0.933,-0.257,0.260,3.113,9.216,6.470
-0.945,-0.237,0.257,-0.671,10.437,7.812
-0.942,-0.221,0.240,-2.014,11.414,7.690
-0.163,1.059,-1.596,-54.138,-195.801,-78.125
-0.341,1.146,-1.511,-60.730,-241.821,-101.379
-0.510,1.173,-1.370,-66.528,-287.415,-127.991
-0.684,1.156,-1.247,-72.266,-329.102,-156.128
-0.847,1.080,-1.101,-79.956,-366.028,-184.875
-0.984,0.975,-0.987,-90.454,-395.386,-211.609
-1.140,0.791,-0.911,-97.839,-420.105,-234.131
-1.335,0.564,-0.863,-96.191,-446.289,-253.723
-1.486,0.363,-0.775,-82.520,-475.220,-269.287
-1.602,0.192,-0.710,-57.617,-507.019,-280.334
-1.718,0.066,-0.555,-33.386,-536.133,-286.987
-1.848,-0.036,-0.287,-21.790,-557.861,-291.748
-1.947,-0.121,0.041,-21.729,-571.106,-295.044
-1.986,-0.203,0.318,-28.076,-572.144,-294.434
-1.998,-0.383,0.594,-37.537,-562.866,-290.405
-1.980,-0.715,0.868,-50.293,-546.387,-279.358
-1.998,-0.973,1.155,-59.082,-525.574,-256.287
-2.063,-1.068,1.373,-48.096,-502.258,-223.450
-2.049,-1.006,1.464,-18.127,-474.548,-189.941
-2.009,-0.829,1.514,10.925,-446.594,-164.734
-1.983,-0.635,1.458,23.621,-418.762,-151.672
-2.024,-0.562,1.443,17.029,-392.456,-147.278
-2.076,-0.559,1.398,-5.188,-367.432,-145.142
-2.129,-0.544,1.298,-35.034,-344.177,-137.817
-2.187,-0.528,1.127,-62.073,-326.599,-124.390
-2.213,-0.518,1.068,-75.867,-314.819,-107.056
-2.295,-0.476,1.021,-75.195,-309.143,-89.172
-2.458,-0.398,1.047,-58.167,-309.937,-75.256
-2.523,-0.377,1.182,-29.053,-311.462,-70.190
-2.591,-0.259,1.358,0.977,-310.120,-70.801
-2.643,-0.140,1.518,24.536,-302.246,-75.745
-2.609,-0.179,1.616,36.377,-288.025,-88.623
-2.492,-0.365,1.655,30.334,-270.142,-102.600
-2.348,-0.671,1.665,9.277,-249.573,-110.474
-2.110,-0.990,1.604,-14.282,-228.577,-108.032
-1.870,-1.160,1.607,-29.541,-208.008,-94.238
-1.698,-1.203,1.565,-29.846,-182.312,-73.914
-1.577,-1.135,1.394,-15.869,-152.283,-49.377
-1.506,-0.984,1.206,0.488,-125.305,-25.269
-1.415,-0.787,1.056,9.460,-106.018,-6.714
-1.349,-0.508,0.980,10.010,-94.299,3.357
-1.281,-0.368,0.918,8.484,-89.417,5.188
-1.207,-0.322,0.894,5.920,-88.501,0.793
-1.086,-0.204,0.948,5.737,-87.830,-3.174
-0.990,-0.160,0.993,17.639,-80.811,-8.057
-0.939,-0.220,0.889,37.720,-66.040,-14.648
-0.946,-0.261,0.777,51.941,-50.049,-17.822
-0.960,-0.277,0.642,55.847,-36.133,-17.761
-1.077,-0.343,0.483,48.218,-28.809,-15.137
-1.166,-0.375,0.340,26.855,-31.677,-8.606
-1.197,-0.367,0.345,0.366,-42.664,-1.770
-1.205,-0.372,0.443,-17.761,-56.763,4.761
-1.195,-0.332,0.514,-24.170,-64.575,10.986
-1.161,-0.259,0.618,-21.240,-67.139,13.550
-1.100,-0.155,0.748,-7.385,-67.627,10.925
-1.040,-0.133,0.841,17.578,-62.012,3.357
-0.981,-0.138,0.893,44.861,-49.500,-6.897
-0.941,-0.221,0.785,56.702,-33.325,-15.625
-0.953,-0.297,0.633,37.903,-18.005,-17.639
-0.980,-0.304,0.540,-2.441,-7.324,-15.259
-1.003,-0.353,0.459,-39.551,-1.282,-13.489
-0.999,-0.385,0.424,-57.068,1.953,-11.719
-0.993,-0.431,0.356,-52.307,4.211,-9.216
-1.001,-0.490,0.287,-29.968,4.089,-6.531
-0.991,-0.501,0.256,-0.244,1.953,-3.845
-0.959,-0.476,0.258,31.128,0.183,-0.671
-0.936,-0.397,0.270,59.387,-0.122,3.418
-0.912,-0.286,0.286,76.355,2.380,6.226
-0.894,-0.237,0.273,74.280,7.812,5.493
-0.906,-0.224,0.234,49.011,13.306,4.456
-0.938,-0.196,0.204,10.071,18.311,5.127
-0.958,-0.206,0.207,-23.437,20.142,4.639
-0.957,-0.241,0.223,-38.818,19.775,4.089
-0.954,-0.256,0.238,-36.377,19.470,5.127
-0.962,-0.265,0.221,-21.362,19.836,5.859
-0.960,-0.267,0.195,-0.061,18.738,6.897
-0.963,-0.243,0.176,18.555,16.296,9.460
-0.970,-0.180,0.164,28.931,14.404,12.695
-0.981,-0.112,0.149,31.616,12.207,13.611
-0.977,-0.076,0.150,28.931,10.315,11.719
-0.978,-0.107,0.156,19.409,8.667,8.057
-0.983,-0.151,0.178,3.296,6.653,5.249
-0.967,-0.183,0.218,-12.024,4.761,4.089
-0.950,-0.220,0.257,-19.958,4.150,3.662
-0.934,-0.234,0.284,-19.592,5.371,3.906
-0.935,-0.231,0.295,-12.390,7.629,4.395
-0.947,-0.237,0.276,-1.587,10.193,4.700
-0.957,-0.253,0.237,8.179,11.230,4.639
-0.956,-0.249,0.202,13.306,11.108,5.005
-0.957,-0.240,0.168,14.221,10.376,6.042
-0.958,-0.235,0.152,12.512,9.216,6.409
-0.953,-0.241,0.156,9.521,6.958,6.409
-0.946,-0.234,0.168,5.249,4.395,6.470
-0.936,-0.228,0.190,0.854,2.075,6.653
-0.922,-0.231,0.221,-3.052,0.671,6.470
-0.916,-0.230,0.250,-6.165,0.793,6.409
-0.924,-0.222,0.269,-7.935,1.892,7.019
-0.931,-0.219,0.263,-8.057,3.845,7.446
-0.935,-0.208,0.255,-6.104,5.432,7.324
-0.949,-0.211,0.243,-2.075,6.592,7.019
-0.959,-0.208,0.224,3.296,6.470,6.409
-0.961,-0.216,0.205,8.301,5.554,5.371
-0.954,-0.220,0.206,12.329,4.028,4.761
-0.950,-0.213,0.210,15.076,2.930,5.127
-0.952,-0.210,0.211,15.137,2.747,5.920
-0.950,-0.209,0.216,12.207,2.869,6.348
-0.944,-0.211,0.230,7.690,2.319,6.897
-0.943,-0.218,0.245,2.808,2.502,7.202
-0.939,-0.218,0.251,0.427,2.686,7.202
-0.941,-0.202,0.260,0.793,3.113,6.897
-0.947,-0.200,0.254,3.296,3.845,5.981
-0.952,-0.214,0.246,5.920,4.272,4.211
-0.946,-0.222,0.243,7.629,4.028,3.052
-0.950,-0.228,0.238,7.629,4.333,2.747
-0.950,-0.231,0.229,6.287,4.395,2.441
-0.943,-0.219,0.223,5.249,4.089,2.380
-0.950,-0.214,0.204,4.700,3.967,2.136
-0.946,-0.223,0.184,3.357,3.235,1.038
-0.940,-0.235,0.192,0.549,0.549,0.122
-1.901,-0.692,0.672,12.634,-481.384,-280.396
-1.955,-0.767,0.997,-2.319,-469.543,-265.747
-1.911,-0.752,1.153,-6.470,-451.355,-251.526
-1.912,-0.714,1.168,-9.460,-428.223,-236.694
-1.992,-0.828,1.040,-26.917,-401.062,-219.788
-2.150,-1.027,0.973,-55.237,-380.615,-200.439
-2.278,-1.025,1.016,-83.496,-372.681,-176.514
-2.431,-0.980,1.152,-94.482,-371.887,-154.419
-2.480,-0.878,1.359,-88.074,-375.488,-136.780
-2.493,-0.816,1.485,-75.378,-371.094,-120.911
-2.477,-0.705,1.504,-62.134,-361.511,-106.812
-2.517,-0.565,1.536,-49.683,-350.891,-95.215
-2.546,-0.488,1.572,-38.025,-336.670,-88.013
-2.520,-0.462,1.563,-31.982,-321.716,-85.999
-2.471,-0.450,1.546,-30.457,-309.265,-84.778
-2.418,-0.449,1.565,-34.180,-298.706,-82.825
-2.334,-0.509,1.657,-41.260,-288.330,-81.482
-2.233,-0.475,1.846,-48.706,-275.085,-76.843
-2.105,-0.505,1.933,-46.692,-252.075,-73.425
-1.955,-0.626,1.883,-32.959,-222.412,-74.707
-1.791,-0.779,1.832,-13.428,-192.261,-73.792
-1.685,-0.938,1.711,2.258,-160.706,-67.810
-1.597,-1.070,1.511,10.803,-130.005,-57.129
-1.508,-1.084,1.355,10.681,-109.070,-41.809
-1.426,-1.023,1.254,7.263,-97.412,-21.973
-1.362,-0.890,1.156,6.592,-91.797,-2.075
-1.287,-0.633,1.173,9.216,-90.027,12.634
-1.182,-0.412,1.279,22.705,-88.501,18.005
-1.026,-0.262,1.343,44.495,-81.055,12.512
-0.933,-0.178,1.317,65.247,-66.223,3.418
-0.909,-0.158,1.214,76.172,-47.302,-5.066
-0.933,-0.218,1.048,73.242,-30.029,-11.963
-0.969,-0.301,0.890,52.734,-18.127,-15.686
-0.986,-0.363,0.771,21.851,-11.902,-15.564
-0.999,-0.406,0.673,-5.737,-9.705,-12.512
-1.008,-0.460,0.596,-20.813,-10.498,-8.057
-0.988,-0.507,0.546,-19.470,-12.329,-3.418
-0.966,-0.471,0.544,-5.920,-14.160,2.075
-0.938,-0.390,0.564,12.268,-13.123,5.798
-0.895,-0.359,0.564,26.367,-7.141,4.944
-0.902,-0.372,0.513,27.100,0.793,2.136
-0.912,-0.378,0.444,14.893,10.437,1.221
-0.918,-0.385,0.392,-1.587,15.686,1.221
-0.903,-0.372,0.353,-13.184,17.395,2.625
-0.893,-0.364,0.316,-17.090,19.592,4.761
-0.899,-0.371,0.266,-12.878,21.301,6.042
-0.915,-0.385,0.210,-2.930,21.118,7.263
-0.919,-0.406,0.162,11.169,19.104,8.911
-0.922,-0.409,0.135,25.696,15.625,12.024
-0.934,-0.350,0.133,36.499,12.268,16.968
-0.930,-0.229,0.141,43.152,9.521,21.851
-0.926,-0.122,0.139,42.908,7.996,23.315
-0.943,-0.058,0.134,34.607,7.019,20.203
-0.951,-0.044,0.139,20.142,4.578,13.977
-0.941,-0.073,0.178,3.784,-1.160,7.019
-0.939,-0.130,0.225,-10.437,-4.517,1.404
-0.930,-0.174,0.256,-19.531,-5.554,-2.014
-0.928,-0.210,0.285,-20.081,-6.409,-2.747
-0.925,-0.213,0.299,-12.634,-6.592,-2.014
-0.929,-0.200,0.308,-2.563,-6.592,-1.160
-0.932,-0.205,0.292,8.484,-6.653,-0.549
-0.934,-0.188,0.287,16.663,-6.897,-0.244
-0.934,-0.191,0.271,18.494,-6.226,-0.122
-0.943,-0.231,0.244,10.742,-5.127,-0.610
-0.953,-0.249,0.235,-4.028,-6.348,-0.305
-0.956,-0.240,0.259,-19.226,-8.972,0.427
-0.941,-0.272,0.296,-28.198,-12.024,-0.671
-0.916,-0.311,0.347,-29.785,-13.306,-1.953
-0.898,-0.317,0.385,-24.475,-11.658,-1.892
-0.893,-0.319,0.390,-12.268,-7.690,-1.404
-0.891,-0.314,0.373,1.709,-4.028,-1.160
-0.897,-0.295,0.346,13.794,-0.793,0.000
-0.911,-0.283,0.307,19.897,2.380,0.916
-0.920,-0.269,0.271,19.409,3.784,1.282
-0.931,-0.266,0.240,12.451,3.784,2.014
-0.950,-0.272,0.221,0.977,2.136,2.258
-0.956,-0.284,0.222,-8.789,-1.038,2.686
-0.955,-0.301,0.235,-13.123,-3.784,3.479
-0.945,-0.314,0.255,-12.146,-5.798,4.456
-0.923,-0.299,0.285,-8.118,-6.836,6.226
-0.908,-0.263,0.311,-2.380,-6.409,7.751
-0.904,-0.236,0.323,5.127,-4.517,7.629
-0.906,-0.221,0.312,12.451,-2.075,6.958
-0.915,-0.215,0.298,15.625,-0.244,6.348
-0.923,-0.220,0.288,12.695,0.916,5.493
-0.932,-0.227,0.289,5.676,1.282,5.066
-0.929,-0.238,0.292,-1.282,0.916,5.310
-0.929,-0.248,0.299,-5.066,0.732,5.676
-0.929,-0.260,0.308,-5.920,1.099,5.798
-0.930,-0.268,0.307,-3.418,1.099,5.615
-0.933,-0.273,0.302,0.916,1.587,5.249
-0.929,-0.284,0.302,6.592,2.014,4.761
-0.923,-0.277,0.305,10.986,2.502,4.883
-0.922,-0.256,0.295,13.062,4.150,5.615
-0.925,-0.247,0.283,12.085,5.737,6.042
-0.924,-0.235,0.284,7.141,5.920,6.348
-0.924,-0.224,0.296,0.244,5.981,6.226
-0.930,-0.225,0.302,-5.066,6.042,4.944
-0.923,-0.246,0.307,-7.263,5.432,2.930
-0.919,-0.284,0.304,-5.798,5.554,1.465
-0.917,-0.311,0.305,-2.625,5.981,1.099
-0.916,-0.327,0.304,1.160,6.470,2.136
-0.907,-0.317,0.308,5.005,7.202,3.784
-0.902,-0.291,0.307,8.240,8.606,6.104
-0.907,-0.274,0.300,10.315,10.437,7.507
-0.912,-0.259,0.289,10.559,11.353,8.301
-0.918,-0.254,0.285,8.240,11.230,8.423
-0.922,-0.251,0.293,3.601,10.010,7.690
-0.922,-0.252,0.304,-1.221,8.545,6.531
-0.921,-0.259,0.312,-4.089,8.301,5.493
-0.918,-0.270,0.309,-4.883,8.362,4.395
-0.919,-0.283,0.309,-4.089,8.606,3.662
-0.914,-0.286,0.319,-2.991,8.972,3.784
-0.916,-0.286,0.318,-1.526,9.216,4.578
-0.907,-0.290,0.328,-1.221,9.583,4.944
-0.904,-0.291,0.356,-0.610,10.193,5.066
-0.904,-0.296,0.365,1.282,11.475,5.981
-0.903,-0.291,0.364,1.892,13.550,6.714
-0.904,-0.286,0.348,1.099,15.808,6.653
-0.573,0.988,-1.059,-62.500,-286.316,-155.090
-0.714,0.940,-0.958,-60.669,-316.956,-178.406
-0.837,0.858,-0.857,-61.401,-346.680,-202.454
-0.940,0.734,-0.750,-65.552,-373.291,-223.572
-1.052,0.602,-0.648,-71.655,-394.958,-239.441
-1.132,0.514,-0.577,-77.393,-413.269,-250.977
-1.195,0.463,-0.415,-81.787,-429.077,-258.484
-1.298,0.397,-0.260,-85.571,-442.261,-264.160
-1.423,0.325,-0.153,-83.557,-451.721,-269.714
-1.505,0.245,-0.071,-72.510,-458.069,-274.536
-1.617,0.160,0.001,-57.251,-466.370,-280.273
-1.738,0.050,0.211,-46.143,-473.694,-288.879
-1.794,-0.151,0.408,-37.720,-476.074,-297.119
-1.841,-0.439,0.667,-31.616,-472.595,-300.659
-1.942,-0.744,1.011,-25.391,-461.914,-295.410
-2.028,-0.987,1.290,-12.146,-447.388,-283.630
-1.969,-1.122,1.436,5.493,-431.763,-266.663
-1.859,-1.070,1.556,14.038,-414.673,-242.981
-1.918,-1.034,1.577,1.648,-388.733,-216.370
-2.025,-1.002,1.478,-30.945,-359.558,-192.505
-2.125,-0.954,1.416,-67.444,-341.125,-172.180
-2.191,-0.914,1.312,-91.675,-336.182,-155.457
-2.196,-0.813,1.315,-101.013,-335.999,-139.160
-2.254,-0.662,1.341,-101.379,-335.876,-121.948
-2.370,-0.611,1.345,-94.666,-335.815,-109.436
-2.458,-0.582,1.403,-84.656,-335.388,-102.173
-2.539,-0.502,1.518,-73.608,-335.937,-95.154
-2.599,-0.476,1.664,-59.814,-334.656,-90.210
-2.625,-0.559,1.814,-48.462,-325.867,-87.524
-2.588,-0.616,2.001,-49.683,-312.988,-83.252
-2.478,-0.679,2.147,-61.096,-294.434,-77.637
-2.275,-0.750,2.217,-74.707,-270.386,-70.740
-2.032,-0.792,2.258,-85.999,-244.385,-62.927
-1.776,-0.863,2.254,-89.966,-213.684,-56.763
-1.580,-0.955,2.199,-82.886,-176.697,-50.720
-1.405,-0.956,2.032,-63.049,-138.672,-40.649
-1.271,-0.981,1.787,-34.119,-105.164,-29.175
-1.180,-0.921,1.552,-5.798,-77.087,-15.503
-1.068,-0.693,1.376,18.250,-53.040,0.000
-0.972,-0.477,1.209,44.922,-32.776,10.132
-0.912,-0.283,1.020,76.416,-17.822,12.451
-0.844,-0.104,0.857,105.347,-7.690,9.705
-0.799,-0.046,0.675,122.498,-1.709,1.343
-0.788,-0.090,0.492,123.474,0.122,-7.690
-0.796,-0.147,0.362,105.835,-3.174,-14.099
-0.819,-0.216,0.305,74.280,-11.230,-17.334
-0.850,-0.282,0.322,36.621,-22.339,-17.578
-0.894,-0.344,0.395,2.747,-33.630,-15.381
-0.920,-0.405,0.473,-17.517,-42.419,-11.536
-0.965,-0.467,0.557,-23.376,-48.889,-7.874
-0.979,-0.479,0.626,-17.090,-52.856,-4.028
-0.993,-0.428,0.698,-1.770,-54.871,0.488
-0.979,-0.322,0.772,16.052,-54.138,3.113
-0.950,-0.242,0.824,27.649,-49.683,1.526
-0.940,-0.228,0.820,28.137,-41.565,-2.686
-0.945,-0.255,0.792,14.709,-33.020,-5.920
-0.938,-0.273,0.782,-5.493,-26.184,-7.019
-0.930,-0.288,0.746,-21.362,-20.447,-5.676
-0.915,-0.288,0.716,-29.053,-14.648,-4.333
-0.906,-0.297,0.671,-27.283,-10.010,-3.967
-0.906,-0.307,0.624,-18.250,-5.493,-3.723
-0.912,-0.311,0.571,-5.432,-2.258,-2.563
-0.907,-0.315,0.518,7.202,0.122,-0.488
-0.914,-0.300,0.489,15.625,1.770,2.808
-0.903,-0.258,0.471,18.494,3.784,6.470
-0.908,-0.202,0.429,16.235,6.348,8.667
-0.897,-0.171,0.379,9.888,9.094,7.690
-0.895,-0.172,0.358,3.784,9.766,3.662
-0.899,-0.198,0.335,-0.427,8.972,-0.488
-0.895,-0.244,0.306,-3.296,8.667,-3.296
-0.893,-0.289,0.284,-5.554,7.446,-4.211
-0.905,-0.322,0.268,-6.042,6.592,-3.906
-0.911,-0.348,0.243,-4.700,5.554,-2.686
-0.906,-0.357,0.262,-0.366,3.357,-0.671
-0.900,-0.331,0.280,6.409,2.808,2.502
-0.900,-0.295,0.284,12.878,4.150,5.615
-0.898,-0.281,0.271,16.113,5.676,7.080
-0.910,-0.266,0.259,14.893,6.531,8.301
-0.911,-0.241,0.246,11.353,6.104,9.155
-0.913,-0.223,0.242,7.202,4.211,9.460
-0.912,-0.219,0.250,3.052,2.075,9.094
-0.909,-0.212,0.272,-0.183,-0.671,8.362
-0.913,-0.218,0.283,-1.709,-2.563,7.996
-0.914,-0.228,0.298,-1.709,-4.028,8.118
-0.915,-0.224,0.324,-1.404,-5.737,8.850
-0.914,-0.207,0.339,-0.671,-7.080,9.827
-0.901,-0.175,0.353,0.244,-7.385,10.254
-0.905,-0.151,0.355,-0.366,-6.775,9.888
-0.915,-0.154,0.352,-1.648,-6.592,8.240
-0.911,-0.170,0.368,-3.845,-8.301,5.615
-0.913,-0.189,0.396,-7.080,-9.888,3.662
-0.908,-0.213,0.421,-9.827,-10.132,1.648
-0.903,-0.229,0.431,-9.644,-9.399,0.610
-0.906,-0.238,0.437,-7.141,-6.897,0.488
-0.903,-0.221,0.452,-2.197,-4.578,0.305
-0.895,-0.222,0.447,5.859,-2.258,-0.854
-0.897,-0.222,0.423,13.245,1.648,-1.587
-0.898,-0.211,0.381,15.869,5.127,-1.648
-0.902,-0.215,0.336,14.038,6.714,-1.709
-0.901,-0.228,0.304,9.155,6.714,-1.648
-0.910,-0.238,0.291,2.075,5.249,-0.732
-0.902,-0.254,0.293,-3.479,2.075,-0.244
-0.895,-0.270,0.317,-5.981,-1.221,0.061
-0.890,-0.285,0.338,-5.798,-2.380,0.977
-0.885,-0.283,0.350,-3.967,-2.869,1.465
-0.889,-0.270,0.358,-2.197,-2.563,2.197
-0.889,-0.261,0.367,-1.038,-1.465,2.319
-0.897,-0.268,0.356,1.709,0.000,2.136
-0.903,-0.277,0.337,2.991,2.075,2.991
-0.916,-0.267,0.333,3.174,3.296,3.601
-0.919,-0.243,0.316,4.456,2.869,3.845
-0.912,-0.246,0.290,5.615,1.892,2.502
-0.913,-0.270,0.292,5.493,0.000,0.732
-0.903,-0.284,0.301,4.944,-1.770,0.427
-0.899,-0.291,0.306,4.761,-2.869,1.648
-0.906,-0.278,0.310,3.357,-3.479,3.296
-0.895,-0.248,0.317,2.258,-4.700,4.211
-0.901,-0.218,0.322,2.075,-5.432,4.517
-0.913,-0.210,0.318,2.991,-5.310,4.089
-0.846,0.719,-0.924,-31.494,-346.863,-200.928
-0.995,0.645,-0.785,-25.513,-375.793,-220.703
-1.098,0.567,-0.636,-25.696,-401.184,-239.502
-1.202,0.474,-0.489,-30.884,-420.471,-255.310
-1.314,0.360,-0.340,-38.879,-436.096,-267.822
-1.409,0.199,-0.158,-43.091,-446.777,-278.015
-1.520,0.045,0.005,-44.067,-453.064,-284.607
-1.654,-0.076,0.144,-41.016,-457.825,-289.246
-1.738,-0.229,0.303,-32.471,-461.975,-294.006
-1.800,-0.466,0.445,-21.790,-463.379,-294.067
-1.888,-0.735,0.678,-15.442,-459.351,-290.039
-1.944,-0.928,1.019,-10.437,-451.111,-280.273
-1.975,-0.977,1.317,-2.869,-436.157,-268.066
-1.989,-1.002,1.470,9.399,-414.062,-257.019
-2.018,-1.033,1.443,21.606,-387.939,-244.812
-2.087,-1.064,1.346,22.888,-363.525,-229.309
-2.146,-1.146,1.234,10.803,-344.666,-212.158
-2.209,-1.164,1.184,-8.301,-333.008,-190.430
-2.272,-1.064,1.260,-30.579,-324.097,-161.316
-2.275,-0.945,1.386,-50.293,-314.148,-132.935
-2.325,-0.771,1.497,-62.866,-307.129,-110.840
-2.423,-0.615,1.532,-68.665,-298.645,-94.482
-2.444,-0.517,1.529,-70.740,-289.246,-85.449
-2.453,-0.494,1.545,-69.092,-283.020,-83.374
-2.455,-0.546,1.552,-62.134,-275.635,-83.740
-2.411,-0.575,1.564,-51.025,-265.991,-82.214
-2.360,-0.629,1.578,-36.560,-252.441,-78.918
-2.236,-0.683,1.599,-22.827,-239.624,-78.003
-2.041,-0.766,1.647,-14.160,-227.417,-80.322
-1.871,-0.854,1.665,-9.033,-211.426,-80.933
-1.655,-1.012,1.611,-7.385,-188.232,-77.148
-1.495,-1.095,1.526,-11.353,-164.185,-66.223
-1.358,-1.076,1.426,-17.761,-140.930,-47.852
-1.256,-0.933,1.320,-21.851,-118.591,-26.245
-1.208,-0.760,1.168,-20.569,-99.243,-8.362
-1.160,-0.578,1.020,-12.451,-85.266,1.831
-1.111,-0.419,0.971,1.038,-77.698,4.822
-1.041,-0.336,0.915,21.179,-72.571,0.305
-0.990,-0.308,0.864,44.189,-66.101,-7.080
-0.956,-0.351,0.764,62.317,-57.190,-14.709
-0.963,-0.417,0.681,70.496,-48.645,-18.494
-0.971,-0.457,0.612,64.453,-43.213,-18.860
-0.967,-0.473,0.581,45.715,-40.588,-15.930
-0.985,-0.470,0.583,22.034,-39.856,-9.888
-0.998,-0.436,0.604,0.549,-39.185,-3.052
-0.997,-0.423,0.632,-10.925,-38.574,3.174
-0.968,-0.407,0.638,-10.071,-37.537,9.216
-0.985,-0.391,0.624,-1.038,-34.119,14.648
-0.998,-0.310,0.620,11.475,-31.372,18.433
-1.007,-0.182,0.657,22.949,-30.029,18.005
-1.002,-0.129,0.692,29.968,-28.442,11.108
-1.002,-0.148,0.713,30.396,-26.062,1.770
-1.000,-0.186,0.732,24.231,-23.743,-3.418
-0.966,-0.213,0.733,13.611,-19.958,-4.944
-0.927,-0.230,0.731,2.563,-14.343,-5.249
-0.911,-0.269,0.701,-5.493,-6.958,-4.883
-0.908,-0.276,0.640,-9.277,1.465,-3.906
-0.895,-0.263,0.559,-7.874,9.766,-2.380
-0.902,-0.261,0.472,-3.418,16.357,-1.648
-0.914,-0.280,0.368,0.793,20.508,-1.465
-0.940,-0.296,0.267,1.526,22.400,-0.793
-0.946,-0.293,0.197,-1.526,22.339,-0.061
-0.956,-0.293,0.171,-5.676,18.921,-0.977
-0.945,-0.312,0.172,-9.338,14.648,-2.625
-0.922,-0.334,0.194,-10.071,11.353,-3.479
-0.907,-0.343,0.212,-6.775,10.498,-2.686
-0.906,-0.339,0.217,-0.549,11.292,-1.526
-0.900,-0.345,0.208,7.629,12.207,-0.610
-0.894,-0.335,0.201,14.282,12.756,1.099
-0.897,-0.307,0.200,16.418,14.160,2.869
-0.888,-0.273,0.197,15.076,15.198,4.272
-0.911,-0.253,0.193,11.047,15.320,5.249
-0.927,-0.244,0.167,5.676,14.709,5.859
-0.944,-0.252,0.171,0.244,11.780,5.554
-0.943,-0.250,0.206,-2.930,7.996,5.615
-0.935,-0.256,0.229,-2.563,5.310,5.676
-0.934,-0.274,0.256,0.732,3.357,5.798
-0.930,-0.274,0.289,4.700,1.770,6.958
-0.917,-0.260,0.319,7.568,1.465,8.606
-0.917,-0.226,0.343,8.423,3.052,10.742
-0.933,-0.183,0.353,8.423,4.822,11.963
-0.928,-0.137,0.341,6.714,6.104,11.047
-0.928,-0.134,0.329,3.479,6.470,7.690
-0.929,-0.169,0.326,-0.671,5.920,3.784
-0.924,-0.207,0.325,-3.906,5.371,1.160
-0.922,-0.239,0.325,-5.554,5.127,0.061
-0.921,-0.255,0.323,-5.066,5.188,-0.122
-0.921,-0.253,0.322,-3.113,5.249,0.366
-0.921,-0.250,0.319,-1.038,5.493,0.977
-0.919,-0.252,0.321,0.488,5.554,1.160
-0.921,-0.257,0.324,1.221,5.737,1.343
-0.919,-0.263,0.321,1.221,6.409,1.709
-0.917,-0.271,0.310,0.244,7.629,1.892
-0.917,-0.284,0.293,-0.549,8.850,1.770
-0.922,-0.291,0.276,-0.427,9.216,1.953
-0.922,-0.305,0.263,0.244,8.667,2.380
-0.922,-0.300,0.269,0.610,7.446,2.747
-0.910,-0.290,0.277,1.709,5.676,3.235
-0.906,-0.282,0.291,2.991,4.578,3.845
-0.903,-0.273,0.301,4.089,4.028,4.517
-0.901,-0.266,0.308,4.944,3.845,4.761
-0.901,-0.260,0.305,4.944,3.906,5.005
-0.904,-0.255,0.307,3.601,3.784,5.249
-0.908,-0.264,0.314,1.221,3.967,5.249
-0.915,-0.268,0.324,-1.404,4.395,5.554
-0.919,-0.273,0.319,-2.258,4.761,6.226
-0.922,-0.283,0.318,-1.709,5.127,6.348
-0.919,-0.295,0.323,0.000,5.066,6.470
-0.915,-0.298,0.328,1.221,4.883,6.653
-0.901,-0.290,0.327,2.991,5.249,7.324
-0.901,-0.270,0.315,6.165,6.042,8.545
-0.904,-0.248,0.296,8.911,6.836,9.399
-0.909,-0.229,0.288,10.620,6.531,9.094
-0.910,-0.221,0.306,10.925,4.578,8.118
-0.903,-0.227,0.321,8.240,2.686,6.775
-0.905,-0.250,0.344,2.808,1.709,5.127
-0.906,-0.274,0.365,-2.014,1.282,3.906
-0.897,-0.282,0.388,-4.456,1.709,3.784
-0.890,-0.275,0.397,-5.554,3.723,4.456
-0.927,0.756,-0.881,2.197,-352.844,-239.441
