aX,aY,aZ,gX,gY,gZ
-0.013,-0.860,2.758,-28.076,66.345,30.518
0.116,-0.797,2.707,-53.528,75.623,11.841
0.311,-0.750,2.694,-75.256,65.063,-8.911
0.486,-0.682,2.790,-94.666,41.443,-28.931
0.642,-0.615,2.839,-113.464,26.367,-46.448
0.807,-0.527,2.817,-127.869,22.278,-57.739
1.023,-0.454,2.749,-133.606,19.714,-60.852
1.288,-0.432,2.643,-130.554,15.503,-57.983
1.474,-0.482,2.661,-115.723,-2.319,-51.453
1.704,-0.596,2.697,-93.018,-25.330,-44.312
1.929,-0.746,2.708,-73.792,-44.922,-41.260
2.196,-0.855,2.658,-67.444,-64.209,-45.166
2.545,-0.894,2.401,-75.317,-84.778,-52.368
2.834,-0.832,2.098,-92.102,-109.192,-55.603
3.061,-0.735,1.612,-112.000,-130.432,-54.626
3.130,-0.507,1.307,-130.859,-161.560,-48.035
3.335,-0.524,0.640,-146.790,-183.838,-34.912
3.027,-0.328,0.203,-141.541,-203.613,-0.244
2.586,-0.232,0.123,-118.103,-207.825,28.076
2.458,-0.342,-0.029,-99.854,-184.509,32.532
2.311,-0.497,-0.073,-83.801,-164.307,32.715
2.171,-0.632,-0.178,-68.298,-155.090,33.569
2.102,-0.761,-0.430,-60.547,-157.593,35.278
1.975,-0.753,-0.710,-56.152,-182.861,42.664
1.786,-0.661,-1.046,-48.157,-218.506,51.086
1.506,-0.502,-1.228,-34.180,-246.948,57.556
1.285,-0.412,-1.353,-15.991,-252.014,58.105
1.022,-0.343,-1.246,0.427,-236.267,52.673
0.839,-0.289,-1.142,9.644,-200.439,44.739
0.698,-0.245,-0.936,12.451,-159.180,38.513
0.575,-0.289,-0.696,7.385,-127.014,30.273
0.480,-0.320,-0.520,2.075,-101.563,21.362
0.399,-0.345,-0.377,1.831,-86.731,12.085
0.361,-0.362,-0.235,8.179,-86.487,3.479
0.363,-0.386,-0.196,13.550,-90.759,-3.540
0.331,-0.362,-0.170,7.080,-94.849,-9.155
0.401,-0.280,-0.249,-9.460,-95.459,-12.695
0.379,-0.172,-0.338,-26.611,-94.666,-12.207
0.258,-0.062,-0.400,-37.781,-92.712,-7.874
0.115,-0.005,-0.384,-38.208,-93.140,-4.761
0.071,-0.022,-0.348,-27.832,-96.924,-4.944
0.021,-0.059,-0.314,-15.747,-99.792,-10.376
-0.014,-0.088,-0.245,-7.019,-101.746,-17.456
-0.070,-0.094,-0.105,-4.822,-98.022,-23.621
-0.086,-0.079,-0.038,-12.451,-83.618,-24.902
-0.057,-0.046,-0.078,-23.560,-64.941,-17.456
-0.107,-0.039,-0.045,-28.076,-53.223,-5.554
-0.131,-0.071,-0.008,-26.062,-47.180,5.859
-0.187,-0.093,0.038,-20.142,-41.748,15.320
-0.257,-0.092,0.107,-11.963,-39.856,19.104
-0.274,-0.084,0.116,-6.470,-40.771,16.846
-0.282,-0.076,0.106,-2.869,-43.945,13.733
-0.307,-0.083,0.101,-1.160,-45.715,13.123
-0.322,-0.100,0.081,-3.174,-40.039,13.672
-0.386,-0.103,0.110,-4.883,-28.076,16.479
-0.421,-0.110,0.155,-4.333,-12.817,17.273
-0.419,-0.156,0.250,-0.183,-0.793,12.634
-0.394,-0.203,0.361,6.470,7.446,4.700
-0.352,-0.228,0.471,13.367,10.437,-3.235
-0.326,-0.248,0.599,16.724,9.521,-11.597
-0.268,-0.211,0.606,13.306,10.254,-18.494
-0.230,-0.146,0.642,8.118,10.437,-22.339
-0.208,-0.102,0.644,5.615,12.390,-23.499
-0.168,-0.056,0.650,6.348,14.648,-22.217
-0.164,-0.049,0.705,10.437,14.465,-19.165
-0.157,-0.063,0.769,14.343,14.221,-15.137
-0.159,-0.088,0.841,15.747,15.259,-11.475
-0.145,-0.098,0.870,13.489,16.846,-8.484
-0.148,-0.106,0.899,11.047,17.334,-5.920
-0.149,-0.115,0.913,9.583,16.479,-5.249
-0.150,-0.112,0.917,7.629,15.320,-6.042
-0.140,-0.119,0.922,5.737,14.465,-7.996
-0.117,-0.106,0.916,4.883,14.404,-10.254
-0.105,-0.075,0.927,6.775,14.099,-11.719
-0.094,-0.063,0.953,11.414,12.695,-12.756
-0.073,-0.067,0.964,15.625,11.108,-13.489
-0.072,-0.072,0.987,17.700,7.935,-13.000
-0.081,-0.073,1.025,17.761,5.310,-11.292
-0.073,-0.091,1.032,15.686,5.676,-9.460
-0.077,-0.096,1.044,12.146,7.507,-7.263
-0.091,-0.090,1.059,8.484,9.338,-5.615
-0.082,-0.088,1.061,5.737,11.414,-5.249
-0.075,-0.093,1.084,4.883,12.939,-5.554
-0.057,-0.104,1.107,4.700,14.893,-7.690
-0.037,-0.105,1.108,4.089,16.052,-10.376
-0.028,-0.088,1.107,3.418,14.587,-11.230
-0.031,-0.081,1.097,4.089,11.169,-11.780
-0.030,-0.077,1.082,5.249,7.446,-11.841
-0.031,-0.075,1.077,6.714,5.432,-11.353
-0.027,-0.069,1.075,8.789,5.127,-10.986
-0.021,-0.056,1.080,10.742,5.127,-11.169
-0.019,-0.054,1.092,12.756,4.333,-10.864
-0.014,-0.062,1.091,13.062,3.113,-9.155
-0.013,-0.071,1.083,10.742,1.343,-7.385
-0.012,-0.073,1.072,7.141,0.061,-4.700
-0.018,-0.082,1.065,4.028,-0.366,-2.686
-0.022,-0.086,1.045,0.977,-0.183,-1.343
-0.024,-0.082,1.005,-1.099,-1.343,-0.122
-0.035,-0.084,0.978,-1.404,-4.578,1.221
-0.057,-0.088,0.933,-1.038,-8.362,2.136
-0.086,-0.077,0.879,-0.488,-12.390,3.052
-0.108,-0.071,0.842,1.099,-16.296,2.991
-0.119,-0.069,0.800,3.906,-18.372,1.587
-0.126,-0.081,0.790,7.874,-20.020,-0.305
-0.128,-0.087,0.771,11.108,-21.118,-1.587
-0.130,-0.095,0.762,12.573,-21.851,-2.502
-0.137,-0.105,0.749,12.268,-21.729,-2.563
-0.107,-0.112,0.710,11.169,-20.630,-1.831
-0.098,-0.110,0.673,9.338,-21.484,-1.160
-0.115,-0.079,0.639,6.653,-25.024,-0.061
-0.128,-0.060,0.616,4.822,-28.625,0.122
-0.146,-0.068,0.587,4.150,-29.663,0.671
-0.173,-0.078,0.578,4.944,-28.687,4.150
-0.170,-0.090,0.569,5.554,-26.123,7.080
-0.156,-0.131,0.586,5.493,-21.484,9.155
-0.137,-0.148,0.586,4.456,-15.320,10.681
-0.118,-0.146,0.572,2.014,-9.521,11.230
-0.097,-0.133,0.560,-0.793,-9.094,12.146
-0.100,-0.104,0.542,-3.601,-12.024,14.526
1.487,-0.173,2.085,-69.824,7.812,5.493
1.599,-0.172,1.955,-65.063,-15.198,16.479
1.717,-0.168,1.827,-63.660,-44.006,25.208
1.765,-0.095,1.685,-64.819,-75.073,33.447
1.674,-0.023,1.767,-62.622,-98.145,38.147
1.832,-0.140,1.547,-59.387,-101.257,35.339
1.914,-0.161,1.401,-56.946,-102.295,36.865
1.901,-0.178,1.274,-49.988,-98.816,41.626
1.860,-0.305,1.193,-34.302,-89.539,40.039
1.889,-0.432,0.996,-22.278,-81.970,29.175
1.834,-0.441,0.907,-16.663,-88.013,18.799
1.879,-0.483,0.719,-12.878,-102.539,8.362
1.909,-0.539,0.507,-9.460,-124.695,-0.793
1.849,-0.566,0.400,-11.292,-150.024,-5.737
1.857,-0.545,0.156,-19.958,-167.358,-7.812
1.824,-0.485,-0.057,-27.954,-179.871,-6.042
1.653,-0.402,-0.064,-29.480,-187.805,-2.686
1.569,-0.360,-0.185,-29.968,-183.044,-0.122
1.451,-0.340,-0.218,-30.029,-177.856,3.784
1.249,-0.350,-0.214,-28.198,-173.035,7.751
1.046,-0.370,-0.143,-26.550,-166.382,9.521
0.883,-0.448,-0.032,-25.940,-157.471,6.409
0.781,-0.495,0.024,-29.480,-143.555,-0.488
0.669,-0.469,0.138,-36.499,-131.042,-10.681
0.692,-0.432,0.161,-43.091,-118.225,-25.513
0.804,-0.399,0.222,-44.800,-109.497,-40.710
0.972,-0.315,0.089,-41.321,-104.614,-50.232
1.024,-0.243,-0.084,-35.278,-111.877,-50.720
0.965,-0.156,-0.203,-31.067,-129.028,-44.312
0.917,-0.101,-0.375,-28.381,-142.151,-35.889
0.741,-0.031,-0.520,-24.475,-147.644,-21.484
0.477,0.014,-0.565,-17.700,-147.095,-2.686
0.306,-0.060,-0.566,-10.620,-140.259,10.925
0.147,-0.126,-0.520,-8.972,-133.179,18.127
-0.001,-0.152,-0.455,-12.634,-127.014,21.484
-0.105,-0.169,-0.366,-16.174,-117.371,18.677
-0.149,-0.152,-0.305,-17.029,-103.455,10.254
-0.158,-0.118,-0.280,-14.343,-88.501,2.014
-0.196,-0.048,-0.236,-8.057,-78.613,-3.113
-0.189,-0.003,-0.219,-0.122,-73.853,-7.690
-0.191,-0.003,-0.184,10.986,-71.716,-8.972
-0.216,0.004,-0.146,18.677,-68.726,-6.470
-0.253,0.012,-0.134,18.555,-64.209,-3.113
-0.295,0.036,-0.102,14.771,-59.204,1.282
-0.332,0.055,-0.114,11.719,-51.025,5.554
-0.377,0.069,-0.063,11.108,-44.006,7.996
-0.425,0.062,-0.022,13.062,-36.865,9.216
-0.464,0.013,0.018,16.296,-28.320,10.437
-0.473,-0.053,0.050,17.334,-18.799,10.132
-0.488,-0.081,0.089,15.564,-9.338,7.507
-0.487,-0.085,0.155,14.221,-2.686,3.906
-0.445,-0.088,0.212,14.038,-1.465,-0.549
-0.425,-0.088,0.242,15.076,-5.615,-5.249
-0.425,-0.080,0.293,17.151,-13.062,-7.629
-0.425,-0.076,0.352,18.494,-18.616,-7.507
-0.398,-0.091,0.379,17.822,-19.226,-6.226
-0.396,-0.075,0.422,14.832,-16.479,-3.052
-0.405,-0.043,0.476,11.658,-10.620,0.183
-0.385,-0.042,0.517,11.475,-3.235,2.625
-0.375,-0.060,0.577,14.099,2.014,3.906
-0.381,-0.082,0.640,17.212,5.798,4.272
-0.370,-0.109,0.673,18.860,9.094,4.211
-0.366,-0.119,0.719,19.714,11.230,3.418
-0.362,-0.123,0.772,20.874,14.160,1.526
-0.342,-0.127,0.822,21.606,18.188,-1.099
-0.313,-0.124,0.867,21.362,22.034,-3.174
-0.286,-0.134,0.891,21.973,23.743,-3.845
-0.272,-0.140,0.926,22.827,22.461,-2.930
-0.264,-0.153,0.975,22.522,20.447,-1.953
-0.234,-0.162,0.975,19.226,20.386,-0.977
-0.222,-0.158,0.982,15.076,19.409,0.488
-0.219,-0.146,1.002,12.756,17.273,1.953
-0.202,-0.135,1.009,12.146,16.296,2.563
-0.195,-0.135,1.023,12.390,15.259,2.136
-0.183,-0.128,1.016,11.963,14.404,0.977
-0.181,-0.117,1.001,12.146,12.939,0.488
-0.181,-0.124,1.001,13.916,10.986,1.160
-0.182,-0.133,1.000,15.381,10.010,1.282
-0.180,-0.139,1.001,15.747,10.315,0.549
-0.171,-0.147,1.001,15.991,10.925,-0.732
-0.162,-0.153,0.990,15.076,10.986,-1.465
-0.156,-0.144,0.968,13.245,9.888,-1.221
-0.150,-0.127,0.948,12.024,7.751,-0.305
-0.168,-0.109,0.943,12.451,6.165,1.099
-0.183,-0.108,0.939,13.977,6.104,1.648
-0.166,-0.107,0.939,15.930,7.141,0.671
-0.149,-0.109,0.943,18.372,8.179,-1.343
-0.146,-0.124,0.968,21.301,7.874,-2.686
-0.135,-0.137,0.997,22.095,7.568,-3.357
-0.117,-0.138,1.000,20.569,7.507,-4.150
-0.126,-0.118,0.969,18.250,5.371,-4.333
-0.130,-0.092,0.951,17.700,0.854,-3.540
-0.132,-0.092,0.944,20.813,-3.723,-3.479
-0.130,-0.117,0.965,24.963,-6.775,-3.845
-0.108,-0.150,0.981,25.818,-7.751,-3.540
-0.089,-0.169,0.988,21.912,-7.812,-2.563
-0.102,-0.155,0.995,15.198,-7.812,-0.427
-0.085,-0.123,0.948,7.751,-6.775,2.930
-0.096,-0.095,0.878,1.343,-8.972,6.287
-0.123,-0.072,0.852,-1.953,-15.259,11.169
-0.171,-0.065,0.831,-1.282,-20.325,15.808
-0.195,-0.073,0.785,-0.977,-19.287,18.982
-0.201,-0.084,0.747,-0.671,-16.113,20.752
-0.222,-0.126,0.762,1.831,-13.672,21.362
-0.226,-0.169,0.789,4.578,-9.766,19.958
-0.209,-0.201,0.826,5.920,-4.456,16.113
-0.191,-0.209,0.864,5.981,0.427,10.986
-0.183,-0.183,0.882,5.615,3.418,7.019
-0.163,-0.139,0.877,3.662,3.662,4.761
-0.145,-0.093,0.859,2.136,2.258,3.967
-0.146,-0.051,0.829,3.662,-0.122,5.615
-0.160,-0.046,0.808,8.423,-2.258,9.705
-0.155,-0.090,0.817,13.367,-3.174,13.245
-0.156,-0.146,0.838,15.320,-1.587,15.259
-0.160,-0.188,0.881,12.573,2.686,16.479
-0.136,-0.220,0.914,7.446,8.911,16.479
-0.123,-0.225,0.925,1.709,14.404,14.526
-0.141,-0.173,0.893,-4.150,15.320,13.367
-0.136,-0.133,0.851,-8.484,11.169,14.038
-0.216,-0.658,2.634,-60.730,79.102,14.404
-0.146,-0.560,2.623,-74.341,66.284,9.644
-0.041,-0.510,2.629,-83.557,47.119,12.573
0.073,-0.518,2.584,-84.167,25.818,20.081
0.128,-0.522,2.527,-78.308,6.042,30.762
0.185,-0.546,2.506,-69.092,-11.108,38.757
0.276,-0.595,2.466,-58.655,-25.391,39.490
0.384,-0.623,2.449,-52.612,-33.813,33.142
0.536,-0.624,2.393,-50.842,-36.316,22.522
0.654,-0.609,2.327,-50.842,-34.302,9.094
0.814,-0.552,2.214,-51.147,-28.137,-5.005
1.012,-0.524,2.076,-52.612,-20.142,-19.958
1.231,-0.452,1.887,-55.481,-11.780,-32.532
1.408,-0.392,1.751,-56.091,-7.019,-40.527
1.552,-0.360,1.636,-53.589,-6.165,-43.213
1.614,-0.330,1.643,-55.420,-9.766,-42.358
1.737,-0.322,1.530,-57.678,-15.442,-44.067
1.841,-0.353,1.479,-54.810,-32.654,-44.128
1.874,-0.425,1.454,-55.054,-56.458,-40.894
1.840,-0.476,1.370,-59.570,-80.139,-31.433
1.766,-0.543,1.312,-60.547,-104.980,-20.203
1.729,-0.624,1.175,-62.012,-126.038,-8.301
1.658,-0.653,0.994,-67.078,-143.005,5.310
1.601,-0.627,0.753,-72.449,-157.288,15.625
1.585,-0.585,0.452,-74.036,-168.518,22.766
1.572,-0.496,0.172,-67.810,-178.162,30.762
1.507,-0.480,-0.049,-37.048,-184.387,29.541
1.441,-0.400,-0.306,-23.926,-179.504,23.071
1.364,-0.347,-0.318,-14.343,-167.236,12.878
1.287,-0.284,-0.356,-8.484,-150.391,3.052
1.128,-0.259,-0.267,-3.235,-140.686,-2.380
1.004,-0.293,-0.181,0.061,-133.972,-5.859
0.947,-0.373,-0.062,-3.235,-124.878,-10.193
0.877,-0.437,-0.002,-16.724,-114.624,-15.686
0.819,-0.205,-0.020,-60.730,-98.389,-28.809
0.778,-0.057,-0.050,-67.078,-98.450,-35.889
0.773,0.035,-0.066,-61.768,-104.248,-40.894
0.786,0.114,-0.098,-53.101,-112.671,-46.021
0.762,0.172,-0.167,-44.067,-121.399,-50.110
0.699,0.194,-0.180,-35.156,-130.493,-46.631
0.622,0.226,-0.244,-30.457,-131.653,-36.438
0.561,0.198,-0.333,-27.100,-127.563,-21.606
0.384,0.154,-0.385,-21.606,-127.014,-2.502
0.198,0.076,-0.421,-17.578,-123.596,16.541
0.022,-0.051,-0.405,-15.991,-117.676,30.212
-0.146,-0.144,-0.392,-19.165,-108.643,36.926
-0.273,-0.188,-0.349,-24.292,-96.375,36.926
-0.351,-0.197,-0.271,-25.391,-84.045,30.151
-0.404,-0.166,-0.174,-20.325,-72.083,17.456
-0.391,-0.103,-0.044,-10.010,-59.875,-0.671
-0.280,-0.041,0.115,16.235,-39.429,-31.982
-0.139,0.099,0.179,25.452,-38.330,-34.668
-0.101,0.143,0.204,27.283,-38.635,-30.518
-0.109,0.195,0.196,24.414,-41.077,-18.921
-0.144,0.210,0.199,21.362,-45.532,-2.380
-0.212,0.156,0.240,20.020,-46.875,13.916
-0.287,0.048,0.276,18.616,-42.114,27.527
-0.364,-0.056,0.325,15.625,-34.607,37.048
-0.445,-0.144,0.375,10.132,-26.733,39.368
-0.476,-0.201,0.394,3.540,-19.226,35.522
-0.463,-0.216,0.369,-0.366,-13.306,28.625
-0.453,-0.204,0.365,1.892,-10.681,20.630
-0.463,-0.175,0.355,8.728,-8.911,12.817
-0.465,-0.147,0.346,15.686,-6.287,5.554
-0.447,-0.123,0.361,21.606,-2.686,-0.610
-0.434,-0.119,0.415,27.100,1.770,-6.104
-0.410,-0.108,0.472,30.945,7.812,-10.010
-0.375,-0.121,0.571,34.607,13.245,-12.451
-0.348,-0.164,0.706,36.377,18.433,-15.076
-0.285,-0.194,0.776,32.654,23.560,-15.808
-0.239,-0.170,0.797,24.231,26.794,-13.428
-0.231,-0.145,0.798,18.799,23.437,-9.399
-0.227,-0.132,0.803,16.663,16.724,-6.226
-0.238,-0.127,0.788,15.076,11.475,-3.540
-0.251,-0.137,0.775,13.916,8.972,-0.305
-0.280,-0.143,0.781,14.038,8.118,2.319
-0.297,-0.170,0.804,15.259,9.521,3.723
-0.298,-0.206,0.856,16.602,12.268,4.211
-0.293,-0.218,0.893,15.320,16.663,2.197
-0.255,-0.209,0.915,13.000,20.569,-0.793
-0.229,-0.214,0.922,13.062,21.423,-2.808
-0.218,-0.214,0.918,13.550,18.372,-3.906
-0.223,-0.218,0.898,13.000,14.160,-4.089
-0.240,-0.214,0.886,12.451,10.010,-2.991
-0.258,-0.214,0.873,12.573,8.423,-2.502
-0.260,-0.211,0.880,13.428,9.644,-3.235
-0.241,-0.215,0.887,14.587,12.451,-5.371
-0.218,-0.214,0.919,16.235,15.076,-7.690
-0.199,-0.196,0.928,17.212,15.564,-9.216
-0.193,-0.182,0.928,17.395,13.550,-10.071
-0.200,-0.185,0.940,16.968,10.864,-8.911
-0.189,-0.185,0.935,15.198,10.254,-7.690
-0.166,-0.186,0.911,12.878,11.902,-7.324
-0.153,-0.178,0.885,11.047,11.230,-7.141
-0.144,-0.155,0.856,9.644,8.362,-6.714
-0.120,-0.135,0.816,9.705,3.357,-6.775
-0.100,-0.120,0.775,12.390,-2.380,-7.080
-0.092,-0.099,0.732,15.686,-7.812,-6.165
-0.110,-0.103,0.686,17.395,-13.611,-4.333
-0.137,-0.121,0.679,16.663,-17.700,-0.793
-0.173,-0.138,0.646,13.489,-15.930,3.052
-0.175,-0.159,0.634,10.620,-11.841,6.531
-0.182,-0.192,0.662,9.155,-6.836,7.690
-0.161,-0.187,0.685,7.141,0.549,6.531
-0.126,-0.175,0.671,5.432,4.944,4.028
-0.123,-0.152,0.725,6.042,2.747,0.305
-0.062,-0.154,0.739,5.615,-0.061,-3.296
-0.041,-0.106,0.703,0.977,-3.418,-5.432
-0.077,-0.017,0.615,-3.845,-11.536,-3.296
-0.059,0.016,0.534,-2.747,-23.254,5.981
-0.054,-0.031,0.502,5.676,-33.142,17.578
-0.098,-0.085,0.523,13.855,-36.377,27.161
-0.136,-0.129,0.568,19.165,-31.616,33.264
-0.142,-0.187,0.662,20.203,-23.193,33.997
-0.135,-0.210,0.710,14.465,-11.475,30.396
-0.107,-0.171,0.698,5.310,-1.160,24.780
-0.058,-0.099,0.686,0.000,2.014,21.484
-0.030,-0.021,0.668,2.563,-0.732,21.057
0.031,-0.005,0.686,12.817,-6.226,23.743
1.153,-0.561,2.103,-4.944,-56.458,34.912
1.271,-0.631,2.073,-9.766,-67.993,23.804
1.406,-0.620,2.006,-21.118,-85.388,11.597
1.625,-0.609,1.749,-37.964,-101.379,0.671
1.797,-0.552,1.422,-53.711,-122.864,-2.319
1.958,-0.441,1.074,-62.134,-147.522,0.916
2.022,-0.322,0.720,-56.641,-167.480,8.606
1.866,-0.209,0.571,-38.452,-175.293,17.273
1.814,-0.132,0.333,-18.433,-164.978,21.484
1.727,-0.152,0.242,2.625,-152.588,23.987
1.547,-0.240,0.230,22.339,-144.836,26.367
1.407,-0.375,0.172,32.166,-137.207,24.048
1.356,-0.539,0.158,32.959,-135.559,19.165
1.194,-0.712,0.161,28.809,-137.390,14.648
1.046,-0.840,0.070,16.785,-138.245,8.728
0.955,-0.911,-0.104,-0.793,-143.677,1.160
0.818,-0.853,-0.304,-20.081,-154.175,-5.432
0.686,-0.676,-0.505,-36.987,-160.828,-15.686
0.601,-0.512,-0.675,-48.035,-161.499,-29.236
0.564,-0.312,-0.796,-54.688,-157.593,-40.771
0.629,-0.128,-0.941,-53.101,-148.499,-48.584
0.641,-0.018,-0.909,-35.278,-138.855,-47.424
0.478,0.072,-0.743,-8.972,-125.732,-37.109
0.397,0.082,-0.555,10.986,-102.600,-28.992
0.406,-0.022,-0.379,19.226,-79.712,-23.560
0.313,-0.093,-0.280,15.686,-62.805,-16.174
0.201,-0.086,-0.210,4.639,-51.086,-11.536
0.136,-0.060,-0.158,-6.470,-45.715,-11.353
0.078,-0.007,-0.138,-12.878,-45.898,-12.451
0.054,0.037,-0.142,-14.099,-49.866,-13.855
0.009,0.085,-0.151,-11.047,-56.824,-13.977
-0.056,0.123,-0.141,-6.714,-62.866,-11.047
-0.095,0.118,-0.082,-1.343,-64.270,-8.179
-0.140,0.126,0.025,3.540,-58.838,-6.226
-0.145,0.125,0.067,4.700,-48.584,-4.822
-0.136,0.115,0.109,4.089,-40.344,-3.052
-0.125,0.089,0.162,5.005,-36.743,-0.549
-0.141,0.055,0.177,5.310,-35.278,4.150
-0.182,0.036,0.151,1.953,-35.034,12.451
-0.228,0.016,0.132,-1.221,-34.546,20.447
-0.281,-0.013,0.122,-1.465,-32.837,25.635
-0.347,-0.040,0.134,-1.404,-28.564,27.710
-0.392,-0.071,0.187,-0.671,-22.278,25.085
-0.408,-0.089,0.271,1.282,-14.832,19.775
-0.416,-0.077,0.357,2.808,-5.249,14.648
-0.378,-0.078,0.455,5.005,4.272,8.423
-0.324,-0.057,0.531,7.202,12.024,1.770
-0.281,-0.028,0.587,9.827,15.320,-2.502
-0.277,-0.010,0.652,14.771,14.648,-4.395
-0.262,0.002,0.709,20.020,13.367,-5.798
-0.254,0.005,0.742,25.391,12.512,-6.775
-0.253,-0.011,0.802,30.945,10.498,-6.104
-0.256,-0.052,0.881,33.691,10.193,-4.272
-0.239,-0.094,0.949,29.846,13.733,-3.479
-0.218,-0.107,0.977,19.592,18.677,-1.770
-0.189,-0.096,0.955,7.690,22.888,1.648
-0.179,-0.058,0.920,-0.854,22.705,5.493
-0.184,-0.041,0.904,-3.845,18.860,7.019
-0.186,-0.039,0.893,-3.357,15.259,7.141
-0.179,-0.053,0.888,-1.099,13.245,7.202
-0.177,-0.064,0.906,1.160,11.169,7.019
-0.187,-0.074,0.920,1.831,9.277,6.653
-0.193,-0.082,0.931,2.502,8.240,6.470
-0.208,-0.077,0.955,4.517,8.057,5.371
-0.211,-0.072,0.989,5.676,9.888,2.747
-0.177,-0.086,1.006,5.493,13.428,-0.061
-0.152,-0.074,1.034,5.798,16.357,-0.977
-0.141,-0.067,1.072,7.019,15.808,-0.916
-0.127,-0.077,1.112,9.094,14.099,-1.221
-0.112,-0.085,1.118,9.277,11.597,-1.282
-0.105,-0.078,1.108,7.629,7.690,-0.305
-0.115,-0.078,1.083,6.348,4.028,1.404
-0.134,-0.078,1.073,5.615,2.075,2.930
-0.141,-0.080,1.052,5.432,2.991,3.113
-0.141,-0.090,1.047,6.653,4.517,2.686
-0.149,-0.101,1.060,7.996,5.310,1.831
-0.148,-0.105,1.054,7.629,6.104,0.183
-0.135,-0.105,1.047,6.226,6.348,-1.221
-0.141,-0.107,1.042,6.348,5.737,-1.709
-0.136,-0.103,1.022,7.507,5.676,-2.502
-0.127,-0.093,1.008,8.301,4.639,-3.357
-0.122,-0.084,1.007,9.888,2.441,-3.967
-0.120,-0.091,1.020,12.390,0.549,-5.249
-0.108,-0.098,1.014,13.672,-0.061,-5.737
-0.098,-0.105,1.003,13.672,-0.732,-5.066
-0.100,-0.100,0.989,11.963,-2.075,-3.662
-0.105,-0.096,0.957,9.705,-3.052,-1.770
-0.133,-0.094,0.931,8.362,-3.540,0.427
-0.152,-0.105,0.907,8.301,-3.723,1.648
-0.152,-0.134,0.894,8.972,-3.296,1.343
-0.170,-0.135,0.894,9.949,-3.296,0.732
-0.170,-0.137,0.879,11.414,-2.686,-1.343
-0.158,-0.131,0.884,13.489,-1.831,-3.357
-0.141,-0.116,0.874,14.832,-1.038,-4.944
-0.127,-0.103,0.859,15.564,-0.854,-5.798
-0.125,-0.098,0.853,16.235,-2.197,-5.676
-0.125,-0.104,0.856,16.724,-3.418,-5.127
-0.123,-0.105,0.824,15.442,-3.479,-3.723
-0.135,-0.098,0.788,13.977,-4.211,-0.916
-0.145,-0.093,0.765,13.916,-5.676,1.770
-0.145,-0.095,0.743,15.747,-6.104,3.174
-0.144,-0.107,0.715,19.592,-6.470,4.150
-0.154,-0.109,0.730,23.376,-7.202,4.639
-0.156,-0.111,0.721,25.940,-6.104,4.578
-0.164,-0.114,0.729,28.137,-5.981,4.883
-0.167,-0.121,0.769,29.358,-6.348,5.249
-0.145,-0.133,0.760,27.954,-3.723,5.615
-0.104,-0.110,0.742,26.733,-1.709,6.653
-0.078,-0.105,0.723,26.489,-3.967,7.568
-0.050,-0.091,0.711,26.306,-8.545,9.338
-0.051,-0.062,0.668,26.123,-14.160,12.207
-0.061,-0.048,0.665,28.320,-20.630,16.602
-0.075,-0.077,0.723,33.325,-25.146,20.996
-0.123,-0.115,0.745,34.119,-24.475,24.719
-0.135,-0.117,0.717,29.602,-20.569,28.870
-0.170,-0.142,0.724,26.123,-18.616,32.837
-0.198,-0.191,0.759,25.208,-15.808,34.180
-0.199,-0.238,0.796,23.987,-9.094,32.776
-0.186,-0.244,0.791,22.156,-1.526,29.968
1.455,-0.426,1.740,-9.583,-54.260,-17.029
1.577,-0.424,1.636,-7.690,-57.129,-21.423
1.517,-0.413,1.600,-6.653,-70.618,-28.442
1.521,-0.380,1.514,-15.198,-84.595,-35.217
1.620,-0.495,1.380,-24.170,-98.999,-40.894
1.658,-0.538,1.173,-32.104,-119.873,-39.490
1.627,-0.603,0.995,-39.795,-150.330,-38.940
1.528,-0.704,0.914,-48.584,-180.542,-39.307
1.468,-0.773,0.833,-61.707,-196.960,-39.429
1.459,-0.781,0.644,-81.299,-196.960,-39.307
1.452,-0.750,0.487,-99.915,-188.110,-40.649
1.402,-0.704,0.360,-110.901,-171.936,-43.579
1.405,-0.602,0.177,-114.502,-151.428,-48.401
1.399,-0.514,0.059,-111.389,-138.245,-56.335
1.352,-0.420,-0.004,-102.905,-134.583,-63.110
1.346,-0.364,-0.125,-88.806,-136.414,-66.406
1.310,-0.345,-0.139,-68.909,-146.179,-62.561
1.210,-0.391,-0.157,-52.612,-156.616,-52.368
1.108,-0.452,-0.208,-46.143,-161.255,-39.795
0.932,-0.513,-0.206,-49.622,-162.903,-26.062
0.724,-0.517,-0.260,-61.584,-156.982,-12.146
0.579,-0.460,-0.344,-78.003,-145.935,-3.418
0.468,-0.429,-0.379,-91.736,-133.667,-2.869
0.389,-0.374,-0.414,-99.731,-118.591,-7.507
0.348,-0.240,-0.469,-101.501,-103.699,-15.991
0.313,-0.127,-0.474,-92.468,-94.421,-27.100
0.261,-0.058,-0.426,-75.867,-88.806,-36.377
0.269,0.002,-0.385,-57.861,-81.604,-41.321
0.294,0.031,-0.385,-39.551,-74.158,-41.870
0.241,0.035,-0.315,-19.531,-71.899,-36.804
0.196,0.056,-0.183,-3.540,-71.594,-28.931
0.155,0.011,-0.132,3.296,-68.481,-22.156
0.101,0.000,-0.108,0.488,-67.871,-12.329
0.056,0.027,-0.071,-7.141,-68.726,-0.244
-0.030,0.038,-0.039,-10.437,-67.505,9.399
-0.125,0.041,0.017,-8.484,-65.247,14.038
-0.208,0.029,0.040,-6.470,-59.021,13.672
-0.230,0.008,0.066,-4.700,-50.598,12.024
-0.255,0.004,0.107,-2.625,-44.128,10.132
-0.299,0.005,0.149,0.732,-37.659,5.981
-0.291,0.012,0.192,2.563,-28.809,2.625
-0.278,0.027,0.219,1.404,-20.081,0.366
-0.253,0.054,0.245,-0.122,-14.404,-0.610
-0.244,0.082,0.276,1.831,-12.817,1.587
-0.261,0.104,0.293,7.385,-13.855,5.554
-0.288,0.088,0.342,14.404,-17.151,7.812
-0.321,0.050,0.391,19.775,-18.799,8.118
-0.336,0.020,0.425,23.132,-17.090,8.362
-0.346,-0.002,0.464,25.330,-14.038,8.423
-0.350,-0.006,0.508,27.100,-9.827,7.141
-0.360,-0.022,0.549,28.015,-4.761,3.235
-0.344,-0.032,0.594,27.039,0.854,-1.343
-0.310,-0.028,0.630,23.132,7.385,-4.639
-0.302,0.001,0.633,19.043,13.550,-5.981
-0.297,0.022,0.657,17.822,15.564,-4.700
-0.289,0.032,0.691,19.043,16.663,-3.601
-0.278,0.029,0.748,21.362,17.273,-3.967
-0.259,0.031,0.805,23.010,18.616,-5.005
-0.242,0.031,0.872,24.292,20.081,-5.676
-0.223,0.019,0.935,24.048,20.325,-6.226
-0.197,0.015,0.974,21.851,19.775,-5.737
-0.173,0.012,0.993,18.250,17.944,-4.028
-0.156,-0.002,1.005,14.343,14.160,-1.526
-0.158,0.001,1.021,10.742,10.193,2.136
-0.167,0.020,1.003,7.996,7.263,5.432
-0.179,0.020,0.990,7.141,4.700,7.874
-0.193,0.013,0.995,9.216,2.991,10.132
-0.199,0.005,1.001,10.864,3.845,11.841
-0.205,-0.021,1.001,11.658,6.104,12.390
-0.215,-0.046,1.032,11.658,7.874,12.573
-0.204,-0.053,1.039,10.315,9.888,12.451
-0.215,-0.059,1.048,9.399,11.475,11.597
-0.212,-0.064,1.064,8.179,11.597,9.705
-0.206,-0.066,1.060,6.104,11.780,7.935
-0.203,-0.064,1.052,5.432,10.681,7.263
-0.195,-0.068,1.030,5.737,7.751,6.775
-0.200,-0.081,1.013,5.676,3.479,6.714
-0.218,-0.077,1.015,5.920,0.061,6.897
-0.223,-0.078,0.998,6.104,-0.244,6.104
-0.211,-0.067,0.986,4.944,1.587,4.700
-0.202,-0.056,0.980,4.456,3.723,3.296
-0.204,-0.053,0.996,6.104,5.798,2.197
-0.199,-0.059,1.012,7.812,7.690,1.831
-0.194,-0.064,1.027,8.301,9.033,1.160
-0.187,-0.068,1.034,8.179,9.521,0.610
-0.185,-0.066,1.029,8.362,9.033,0.549
-0.184,-0.058,1.029,8.972,7.690,0.061
-0.188,-0.059,1.029,9.827,5.920,-1.099
-0.183,-0.061,1.015,10.498,3.540,-1.953
-0.187,-0.067,1.015,9.888,1.099,-2.136
-0.178,-0.064,1.003,7.446,0.366,-2.014
-0.170,-0.055,0.985,4.883,0.610,-2.014
-0.170,-0.049,0.982,4.150,0.183,-1.587
-0.166,-0.049,0.990,5.127,-0.427,-0.977
-0.162,-0.053,0.992,5.981,-0.671,-0.610
-0.163,-0.051,0.995,5.859,-1.038,0.122
-0.164,-0.053,1.000,5.432,-1.526,0.977
-0.157,-0.062,0.992,3.967,-2.136,1.892
-0.166,-0.052,0.980,2.380,-3.113,3.235
-0.160,-0.053,0.983,2.869,-4.395,4.089
-0.172,-0.065,1.001,4.578,-4.395,3.479
-0.173,-0.068,0.999,4.333,-3.235,2.808
-0.176,-0.064,1.000,2.686,-1.892,2.258
-0.174,-0.062,0.996,1.343,-1.038,0.916
-0.165,-0.058,0.984,1.404,-1.038,-0.183
-0.166,-0.043,0.979,3.113,-2.014,-0.427
-0.180,-0.054,0.967,5.249,-3.540,-0.610
-0.180,-0.063,0.980,7.019,-3.601,-0.916
-0.176,-0.068,0.981,7.019,-2.380,-0.732
-0.172,-0.071,0.985,5.737,-0.671,-0.183
-0.166,-0.069,0.988,5.310,0.183,0.610
-0.166,-0.067,0.999,5.249,-0.549,1.831
-0.167,-0.073,1.012,4.883,-1.709,2.319
-0.167,-0.084,1.016,4.028,-2.197,2.014
-0.170,-0.080,1.021,2.563,-2.197,1.831
-0.164,-0.073,1.006,0.977,-2.625,1.770
-0.162,-0.061,0.992,-0.305,-3.784,2.136
-0.172,-0.056,0.991,-0.854,-5.310,2.380
-0.168,-0.059,0.966,-1.404,-5.676,2.930
0.982,-0.256,2.529,-77.942,-20.081,-36.926
1.119,-0.310,2.530,-62.439,-24.963,-25.879
1.234,-0.382,2.513,-50.171,-33.752,-17.273
1.326,-0.479,2.586,-43.823,-52.612,-16.052
1.475,-0.584,2.564,-45.593,-78.735,-16.785
1.636,-0.797,2.616,-52.368,-112.000,-16.296
1.750,-0.867,2.635,-65.735,-140.747,-13.184
1.851,-0.849,2.583,-89.966,-163.757,-6.958
1.983,-0.853,2.417,-113.770,-175.964,-2.808
2.086,-0.795,2.188,-133.118,-185.425,-1.221
2.164,-0.726,1.914,-146.301,-192.322,-1.526
2.308,-0.738,1.612,-149.536,-199.341,-7.629
2.303,-0.699,1.403,-145.996,-210.449,-12.146
2.309,-0.765,1.145,-141.296,-219.055,-10.437
2.268,-0.870,0.875,-140.930,-224.548,-8.972
2.155,-0.906,0.732,-141.541,-231.201,-5.615
1.977,-0.953,0.581,-141.785,-230.103,2.014
1.884,-0.906,0.283,-142.456,-222.595,9.583
1.700,-0.844,0.048,-136.780,-218.201,16.113
1.535,-0.818,-0.190,-123.230,-210.449,20.386
1.431,-0.781,-0.463,-110.901,-200.439,21.484
1.239,-0.759,-0.676,-97.046,-192.139,22.034
1.018,-0.736,-0.846,-78.979,-183.594,19.836
0.843,-0.719,-0.906,-58.167,-175.659,11.841
0.710,-0.682,-0.849,-39.124,-166.992,1.221
0.593,-0.590,-0.765,-26.794,-154.358,-8.240
0.543,-0.472,-0.703,-19.653,-139.038,-18.311
0.499,-0.382,-0.604,-17.151,-127.991,-25.574
0.461,-0.317,-0.539,-20.264,-114.563,-26.978
0.437,-0.238,-0.506,-26.611,-101.318,-26.184
0.348,-0.174,-0.457,-30.334,-93.201,-23.560
0.266,-0.121,-0.420,-31.311,-86.548,-20.752
0.223,-0.080,-0.379,-27.588,-79.712,-19.226
0.149,-0.057,-0.287,-17.212,-75.867,-18.372
0.109,-0.077,-0.199,-6.592,-73.425,-18.799
0.106,-0.098,-0.148,1.465,-71.289,-19.592
0.096,-0.131,-0.084,7.874,-73.975,-20.081
0.052,-0.141,-0.051,10.071,-77.148,-18.616
0.038,-0.120,-0.034,5.981,-76.477,-17.212
0.017,-0.078,-0.043,-0.122,-72.876,-15.930
-0.046,0.000,-0.075,-5.127,-69.336,-12.634
-0.104,0.082,-0.087,-6.348,-65.857,-9.094
-0.144,0.114,-0.070,-0.732,-62.317,-6.348
-0.177,0.091,0.002,10.986,-56.641,-3.357
-0.239,0.027,0.133,21.973,-50.598,0.977
-0.296,-0.046,0.270,25.635,-40.955,5.249
-0.305,-0.076,0.336,19.226,-27.710,8.606
-0.279,-0.065,0.356,7.751,-15.869,10.986
-0.270,-0.028,0.304,-3.052,-7.507,10.437
-0.269,0.043,0.312,-8.301,-5.432,6.165
-0.251,0.105,0.331,-3.479,-8.057,1.160
-0.240,0.138,0.393,7.141,-12.024,-2.441
-0.226,0.139,0.475,17.761,-14.282,-3.662
-0.241,0.135,0.551,26.245,-13.672,-3.235
-0.235,0.107,0.641,31.921,-13.611,-2.808
-0.242,0.064,0.724,34.302,-14.221,-1.343
-0.250,0.032,0.804,31.921,-14.526,1.221
-0.259,0.018,0.851,25.269,-12.695,4.333
-0.262,0.019,0.879,16.602,-9.521,8.362
-0.266,0.022,0.881,8.484,-6.226,12.390
-0.286,0.038,0.865,2.808,-3.967,15.808
-0.303,0.050,0.850,0.549,-3.540,17.395
-0.316,0.042,0.853,1.465,-4.211,17.395
-0.332,0.041,0.867,2.991,-4.150,16.846
-0.334,0.019,0.903,5.554,-2.747,15.625
-0.315,-0.012,0.950,7.324,-1.953,14.160
-0.306,-0.034,0.973,6.470,-2.747,13.184
-0.321,-0.031,1.001,3.418,-5.188,11.536
-0.329,-0.026,1.019,-0.610,-6.775,9.888
-0.325,-0.009,0.996,-4.211,-5.554,9.277
-0.320,-0.000,0.984,-6.104,-4.578,9.094
-0.322,-0.004,0.951,-6.897,-4.700,8.728
-0.328,0.007,0.968,-5.615,-5.371,8.545
-0.333,0.006,0.958,-4.517,-6.104,8.362
-0.334,0.006,0.946,-3.906,-6.653,8.728
-0.339,0.000,0.930,-3.235,-7.568,9.766
-0.348,-0.010,0.929,-3.052,-8.057,10.803
-0.346,-0.006,0.920,-2.808,-7.080,10.986
-0.343,-0.001,0.910,-1.282,-5.798,10.742
-0.345,-0.005,0.908,1.404,-5.188,10.742
-0.347,-0.018,0.918,4.028,-4.456,10.132
-0.339,-0.029,0.922,5.005,-2.869,8.728
-0.333,-0.027,0.914,4.761,-1.282,7.751
-0.323,-0.015,0.904,4.883,-0.916,8.118
-0.323,-0.015,0.896,6.226,-2.319,9.094
-0.335,-0.027,0.912,7.629,-4.395,9.705
-0.341,-0.056,0.874,7.629,-4.395,9.766
-0.340,-0.056,0.865,7.202,-4.395,9.705
-0.342,-0.046,0.840,6.714,-3.845,9.094
-0.347,-0.044,0.827,7.324,-3.601,8.118
-0.347,-0.034,0.808,9.216,-3.845,7.629
-0.358,-0.045,0.808,11.780,-3.784,7.812
-0.363,-0.059,0.820,13.000,-2.136,7.324
-0.354,-0.076,0.809,12.756,1.160,6.470
-0.327,-0.086,0.792,12.207,4.089,6.165
-0.335,-0.091,0.779,11.108,3.845,5.432
-0.350,-0.080,0.779,9.827,2.441,4.211
-0.356,-0.079,0.758,9.338,2.869,3.235
-0.352,-0.073,0.742,10.681,3.784,2.380
-0.354,-0.085,0.746,12.512,4.517,1.770
-0.355,-0.083,0.749,14.771,5.493,2.075
-0.357,-0.078,0.761,17.700,7.202,2.563
-0.346,-0.093,0.775,20.813,8.301,2.014
-0.329,-0.114,0.804,23.254,8.606,0.854
-0.340,-0.121,0.838,22.644,10.071,-0.671
-0.330,-0.113,0.827,19.531,12.268,-0.366
-0.330,-0.101,0.813,16.174,14.343,1.465
-0.319,-0.101,0.803,14.404,15.015,2.747
-0.310,-0.102,0.795,14.465,13.794,2.686
-0.308,-0.096,0.819,14.465,12.146,1.892
-0.300,-0.100,0.841,15.015,11.047,1.770
-0.292,-0.107,0.872,16.663,9.338,2.319
-0.288,-0.110,0.886,17.212,8.484,3.113
-0.280,-0.104,0.891,16.724,8.484,4.456
-0.272,-0.095,0.884,17.029,7.202,6.042
-0.295,-0.091,0.883,17.761,4.456,6.531
-0.313,-0.095,0.886,17.334,3.296,7.202
-0.308,-0.108,0.892,17.700,4.578,7.935
-0.299,-0.126,0.905,18.860,6.958,7.629
1.428,-0.771,1.439,-12.756,-13.123,-18.127
1.518,-0.739,1.332,-10.193,-26.978,-27.710
1.603,-0.694,1.212,-12.024,-49.377,-35.767
1.663,-0.656,1.096,-17.090,-79.468,-45.410
1.619,-0.562,1.079,-24.597,-109.558,-51.575
1.625,-0.478,0.972,-30.090,-128.418,-53.467
1.591,-0.469,0.861,-30.212,-143.250,-51.392
1.493,-0.477,0.802,-31.433,-158.997,-46.814
1.451,-0.508,0.658,-37.781,-169.617,-41.199
1.397,-0.544,0.482,-45.227,-180.908,-34.241
1.247,-0.575,0.322,-51.208,-194.763,-26.550
1.095,-0.587,0.145,-59.509,-205.322,-20.691
0.945,-0.596,-0.041,-72.571,-211.670,-17.517
0.738,-0.563,-0.199,-88.562,-212.830,-16.296
0.560,-0.491,-0.300,-103.577,-205.383,-19.348
0.531,-0.434,-0.463,-113.647,-193.665,-28.015
0.477,-0.322,-0.576,-114.685,-185.120,-37.720
0.417,-0.186,-0.643,-104.797,-176.697,-45.593
0.370,-0.088,-0.640,-85.693,-167.786,-53.467
0.308,-0.017,-0.528,-64.575,-157.837,-59.631
0.325,0.011,-0.441,-48.706,-142.700,-61.951
0.371,0.018,-0.419,-38.635,-128.601,-58.777
0.304,0.056,-0.345,-34.058,-122.803,-49.133
0.216,0.083,-0.284,-34.546,-118.469,-38.391
0.183,0.079,-0.300,-36.743,-111.328,-27.710
0.150,0.076,-0.349,-36.804,-105.530,-16.907
0.033,0.088,-0.333,-33.447,-102.600,-7.629
-0.056,0.088,-0.312,-27.222,-98.145,-2.075
-0.108,0.053,-0.301,-20.325,-92.529,0.671
-0.175,0.056,-0.257,-14.648,-87.402,1.221
-0.238,0.073,-0.211,-8.789,-79.956,-0.916
-0.252,0.064,-0.136,-2.258,-70.068,-4.639
-0.231,0.054,-0.055,3.174,-58.350,-7.812
-0.217,0.057,0.028,5.310,-46.936,-9.583
-0.205,0.070,0.113,3.479,-36.926,-9.521
-0.196,0.094,0.175,-1.099,-28.015,-7.202
-0.198,0.120,0.211,-5.615,-22.522,-2.808
-0.220,0.137,0.253,-7.629,-21.057,2.930
-0.243,0.132,0.298,-5.127,-20.020,9.155
-0.276,0.130,0.341,-0.244,-18.616,13.916
-0.296,0.127,0.373,4.822,-16.418,15.686
-0.318,0.114,0.417,11.780,-14.648,16.602
-0.347,0.088,0.470,19.653,-13.672,16.479
-0.365,0.075,0.512,24.719,-11.841,13.489
-0.360,0.057,0.570,27.588,-8.667,8.728
-0.338,0.042,0.633,29.907,-4.395,4.700
-0.332,0.032,0.681,29.602,1.221,2.869
-0.315,0.031,0.730,26.978,5.798,2.686
-0.308,0.025,0.737,22.644,9.033,3.479
-0.326,0.010,0.755,18.860,9.216,6.897
-0.355,-0.013,0.791,17.273,8.240,11.169
-0.369,-0.036,0.816,15.747,9.277,13.550
-0.362,-0.042,0.829,14.648,11.047,13.184
-0.358,-0.050,0.865,15.076,10.864,10.376
-0.342,-0.075,0.905,14.893,10.803,6.226
-0.315,-0.068,0.920,13.000,11.475,2.075
-0.279,-0.045,0.930,10.681,10.742,-0.916
-0.263,-0.021,0.942,9.338,9.399,-1.587
-0.250,-0.008,0.949,8.057,8.118,0.122
-0.238,-0.011,0.947,6.104,7.141,2.991
-0.245,-0.018,0.944,3.967,6.287,6.470
-0.261,-0.025,0.946,2.197,6.165,9.521
-0.266,-0.031,0.943,2.197,7.263,11.292
-0.277,-0.033,0.944,3.784,8.240,12.451
-0.299,-0.033,0.952,5.798,7.996,12.817
-0.313,-0.055,0.969,8.118,6.958,12.207
-0.320,-0.089,0.980,9.827,6.287,11.292
-0.337,-0.104,0.988,9.644,5.493,10.559
-0.335,-0.120,0.994,7.507,5.310,8.606
-0.333,-0.119,0.988,5.371,6.531,5.737
-0.328,-0.099,0.951,3.967,8.301,3.357
-0.311,-0.101,0.962,5.188,8.850,1.221
-0.306,-0.101,0.961,7.202,7.812,0.793
-0.306,-0.083,0.960,7.568,7.812,0.732
-0.293,-0.073,0.952,7.812,7.874,0.549
-0.274,-0.066,0.941,8.972,7.141,0.671
-0.278,-0.058,0.946,11.108,5.676,1.465
-0.285,-0.067,0.954,12.939,4.150,1.892
-0.283,-0.084,0.968,13.184,4.272,1.526
-0.284,-0.088,0.984,12.451,5.310,0.366
-0.287,-0.088,1.002,11.169,6.409,-0.854
-0.276,-0.093,1.009,9.766,7.324,-1.831
-0.268,-0.103,1.018,7.446,7.324,-2.258
-0.258,-0.091,1.008,4.272,6.958,-2.075
-0.251,-0.071,0.998,1.770,6.165,-1.282
-0.240,-0.067,0.980,0.793,5.310,-0.366
-0.239,-0.051,0.964,0.793,4.333,1.099
-0.242,-0.049,0.958,2.197,2.502,1.831
-0.234,-0.064,0.967,3.845,0.916,1.770
-0.237,-0.065,0.966,5.371,0.732,2.502
-0.245,-0.065,0.966,6.104,0.366,3.174
-0.254,-0.067,0.971,6.348,0.549,3.174
-0.259,-0.074,0.975,6.104,1.221,2.563
-0.251,-0.078,0.983,6.104,2.014,1.526
-0.253,-0.086,0.990,6.348,2.136,0.549
-0.256,-0.093,1.001,6.836,0.854,-0.488
-0.251,-0.100,1.010,6.775,-1.160,-1.831
-0.244,-0.104,1.002,5.310,-1.404,-2.869
-0.243,-0.089,1.000,3.235,-1.526,-2.686
-0.238,-0.079,1.000,1.709,-0.671,-2.441
-0.229,-0.070,0.981,-0.183,1.160,-1.709
-0.237,-0.064,0.977,-1.404,1.770,-0.427
-0.244,-0.069,0.979,-1.038,1.770,0.671
-0.247,-0.083,0.982,-0.305,1.892,1.221
-0.248,-0.076,0.980,-0.244,1.648,1.038
-0.246,-0.068,0.974,0.122,0.732,0.427
-0.239,-0.068,0.970,1.526,-0.854,-0.305
-0.244,-0.071,0.977,3.418,-2.441,-0.610
-0.246,-0.084,0.973,4.761,-2.808,-0.916
-0.248,-0.083,0.970,4.395,-2.441,-0.366
-0.245,-0.088,0.960,3.052,-2.380,-0.122
-0.250,-0.090,0.956,2.014,-2.625,0.366
-0.254,-0.093,0.954,1.282,-2.747,0.916
-0.257,-0.090,0.948,0.366,-2.258,0.916
-0.252,-0.085,0.941,0.000,-2.319,0.610
-0.246,-0.082,0.934,0.427,-2.625,0.488
-0.246,-0.076,0.929,1.160,-3.479,0.610
-0.254,-0.080,0.924,2.563,-4.150,1.282
-0.253,-0.086,0.926,4.150,-4.639,2.686
0.442,-0.517,3.426,-84.717,-108.948,-8.911
0.715,-0.624,3.653,-105.957,-106.628,-20.508
1.079,-0.618,3.594,-141.174,-103.516,-27.344
1.481,-0.555,3.405,-173.279,-116.028,-28.259
1.808,-0.511,3.097,-193.481,-135.681,-20.508
2.045,-0.476,2.765,-202.454,-151.001,-6.042
2.112,-0.502,2.402,-201.782,-164.673,9.460
2.152,-0.598,2.021,-197.083,-173.645,26.794
2.059,-0.709,1.772,-183.960,-181.335,40.466
2.003,-0.871,1.526,-165.466,-183.533,48.828
1.910,-1.063,1.117,-149.963,-183.289,53.467
1.703,-1.179,0.814,-141.846,-189.697,54.565
1.541,-1.253,0.382,-133.240,-197.205,48.645
1.374,-1.289,0.056,-125.305,-205.200,39.307
1.202,-1.266,-0.330,-115.845,-204.773,32.104
1.163,-1.205,-0.621,-104.919,-198.120,21.729
1.016,-1.174,-0.956,-91.064,-191.162,16.785
0.748,-1.085,-1.097,-69.580,-186.462,17.029
0.646,-1.013,-1.080,-46.265,-176.697,5.615
0.707,-0.855,-1.083,-29.419,-161.682,-8.911
0.708,-0.618,-0.966,-18.005,-150.330,-16.968
0.736,-0.377,-0.862,-9.277,-139.832,-17.517
0.769,-0.193,-0.795,2.747,-130.920,-14.160
0.674,-0.112,-0.646,18.555,-127.441,-7.385
0.532,-0.074,-0.503,31.311,-123.779,-0.305
0.409,-0.054,-0.371,35.645,-113.708,4.700
0.289,-0.085,-0.243,36.255,-102.417,7.385
0.154,-0.149,-0.123,33.752,-92.102,8.850
0.047,-0.160,-0.067,23.621,-80.139,8.179
-0.002,-0.131,-0.077,11.719,-67.505,5.371
-0.025,-0.097,-0.095,4.883,-58.228,1.343
-0.031,-0.040,-0.099,1.038,-51.758,-1.892
-0.030,0.051,-0.093,-2.380,-46.204,-5.371
0.012,0.098,-0.079,-1.770,-41.321,-8.545
0.007,0.146,0.003,3.784,-38.208,-7.507
-0.024,0.183,0.092,8.301,-34.912,-4.211
-0.047,0.194,0.162,11.719,-31.494,-2.136
-0.100,0.194,0.194,15.869,-27.771,1.709
-0.180,0.170,0.247,22.034,-23.437,7.202
-0.234,0.132,0.319,29.541,-18.127,10.925
-0.245,0.105,0.392,36.133,-13.306,12.512
-0.280,0.084,0.489,39.795,-13.367,12.695
-0.331,0.080,0.551,39.490,-14.221,11.902
-0.364,0.081,0.592,37.903,-14.526,10.498
-0.382,0.075,0.642,36.438,-13.855,7.751
-0.400,0.073,0.677,34.668,-11.963,5.920
-0.418,0.091,0.706,32.532,-9.827,4.639
-0.374,0.069,0.723,32.288,-7.935,2.747
-0.364,0.078,0.748,31.677,-7.751,1.831
-0.373,0.096,0.771,28.564,-8.972,1.343
-0.371,0.095,0.789,27.100,-8.850,1.099
-0.363,0.090,0.844,26.367,-7.141,1.526
-0.366,0.083,0.811,22.095,-3.296,2.502
-0.378,0.113,0.819,17.761,-1.038,3.967
-0.377,0.116,0.804,15.015,1.648,4.517
-0.377,0.110,0.784,12.695,4.822,4.944
-0.386,0.125,0.799,12.268,4.822,5.127
-0.380,0.126,0.802,13.550,4.089,5.066
-0.362,0.115,0.830,14.648,4.150,3.479
-0.358,0.115,0.859,14.038,3.418,2.808
-0.350,0.117,0.865,11.108,1.892,2.869
-0.351,0.132,0.861,7.202,1.160,4.761
-0.359,0.140,0.855,5.554,0.183,6.775
-0.364,0.139,0.853,6.104,-1.404,7.751
-0.377,0.130,0.858,8.972,-2.625,8.301
-0.386,0.102,0.874,13.794,-2.441,8.972
-0.411,0.081,0.917,17.456,-0.793,9.521
-0.373,0.059,0.889,18.066,1.953,9.766
-0.383,0.055,0.909,16.052,2.747,7.812
-0.414,0.054,0.901,14.526,1.892,7.019
-0.409,0.045,0.912,13.611,2.686,6.165
-0.398,0.018,0.902,12.634,3.601,3.418
-0.401,0.030,0.956,11.536,1.953,1.404
-0.398,0.020,0.971,8.301,1.587,1.160
-0.404,0.027,0.976,4.272,2.869,2.258
-0.401,0.015,0.942,1.343,4.395,3.296
-0.391,0.012,0.899,-0.854,5.188,3.967
-0.391,0.028,0.864,-1.770,3.540,3.784
-0.391,0.046,0.834,0.000,0.854,2.625
-0.388,0.046,0.812,3.967,-0.427,2.686
-0.381,0.043,0.812,7.935,-0.122,3.174
-0.378,0.042,0.811,9.583,1.709,3.662
-0.382,0.041,0.812,9.460,2.991,3.845
-0.398,0.037,0.814,9.155,3.479,4.395
-0.412,0.020,0.830,9.644,4.272,4.883
-0.407,-0.002,0.855,10.498,5.615,4.883
-0.404,-0.007,0.868,9.705,6.531,4.822
-0.408,-0.009,0.876,8.850,6.409,4.883
-0.406,-0.007,0.891,8.728,6.409,4.578
-0.387,0.003,0.901,8.545,6.653,4.395
-0.364,0.018,0.904,7.874,6.104,4.089
-0.360,0.031,0.914,6.592,4.089,3.540
-0.349,0.039,0.900,5.615,2.563,4.211
-0.342,0.038,0.901,6.042,1.770,6.470
-0.346,0.031,0.881,7.385,1.831,9.399
-0.374,0.048,0.865,8.057,0.977,11.047
-0.394,0.023,0.878,10.620,0.366,11.047
-0.391,-0.014,0.878,14.038,1.526,11.230
-0.376,-0.040,0.880,15.320,2.625,10.925
-0.426,-0.043,0.903,13.855,4.211,9.216
-0.390,-0.048,0.878,12.024,6.592,8.179
-0.382,-0.054,0.872,9.888,8.789,6.592
-0.391,-0.048,0.893,7.751,8.667,4.700
-0.377,-0.031,0.887,7.324,8.423,4.761
-0.373,-0.033,0.896,7.446,8.301,5.005
-0.378,-0.028,0.911,7.690,8.667,4.700
-0.361,-0.012,0.892,8.301,8.667,5.737
-0.366,-0.020,0.901,10.010,8.789,6.042
-0.321,-0.027,0.901,11.902,10.498,7.568
-0.415,-0.012,0.890,14.160,10.498,8.545
-0.345,-0.029,0.901,16.235,11.902,10.010
-0.362,-0.072,0.882,18.066,14.099,11.047
-0.362,-0.068,0.908,18.311,13.611,11.047
-0.361,-0.065,0.887,16.907,16.846,11.169
-0.305,-0.082,0.845,14.343,15.442,10.864
-0.312,-0.069,0.810,11.841,4.395,8.667
-0.356,-0.045,0.855,7.385,-4.822,6.897
-0.365,-0.047,0.839,6.165,-5.371,7.263
-0.355,-0.055,0.838,6.531,-2.136,7.874
0.915,-0.554,2.103,-112.061,249.146,33.630
1.020,-0.519,2.412,-111.450,176.208,33.630
1.044,-0.558,2.623,-88.867,102.173,29.480
1.145,-0.493,2.491,-86.487,43.030,26.611
1.262,-0.515,2.427,-83.435,-1.831,16.174
1.356,-0.561,2.449,-78.735,-43.518,1.465
1.618,-0.585,2.371,-83.008,-74.463,-14.038
1.756,-0.603,2.270,-95.276,-102.600,-22.034
1.847,-0.541,2.153,-99.670,-129.456,-18.066
1.916,-0.583,2.101,-94.055,-150.330,-15.137
2.070,-0.649,2.021,-89.294,-168.640,-14.893
2.271,-0.783,2.020,-84.595,-192.566,-13.489
2.336,-0.909,2.036,-78.003,-221.558,-5.371
2.367,-1.110,2.105,-80.750,-242.737,1.038
2.463,-1.301,1.912,-103.882,-239.258,2.075
2.561,-1.304,1.667,-131.714,-246.155,3.235
2.582,-1.290,1.487,-147.949,-264.526,4.822
2.606,-1.260,1.213,-152.466,-271.301,9.094
2.606,-1.282,0.933,-153.992,-271.606,9.583
2.480,-1.261,0.603,-157.227,-273.682,4.028
2.320,-1.246,0.239,-157.776,-270.508,-0.122
2.148,-1.236,-0.114,-152.405,-268.066,-0.427
1.931,-1.225,-0.421,-143.738,-269.348,4.211
1.679,-1.218,-0.663,-133.667,-269.958,9.399
1.442,-1.186,-0.829,-124.390,-262.085,7.263
1.210,-1.129,-0.978,-118.835,-247.742,-0.671
0.978,-1.018,-1.009,-112.183,-229.858,-9.216
0.866,-0.939,-0.987,-98.145,-210.999,-20.447
0.776,-0.844,-0.924,-81.055,-196.106,-28.931
0.651,-0.709,-0.837,-64.209,-186.951,-34.424
0.634,-0.637,-0.696,-52.368,-175.781,-42.847
0.630,-0.555,-0.564,-50.903,-158.203,-51.819
0.631,-0.393,-0.476,-57.007,-137.573,-54.138
0.642,-0.240,-0.452,-65.796,-117.798,-51.819
0.651,-0.130,-0.453,-69.275,-106.506,-44.128
0.596,-0.092,-0.444,-63.110,-105.286,-30.396
0.484,-0.093,-0.381,-52.734,-107.361,-17.456
0.393,-0.086,-0.338,-46.082,-103.088,-8.057
0.311,-0.089,-0.285,-39.978,-95.276,-1.892
0.203,-0.097,-0.179,-32.166,-88.928,2.625
0.121,-0.106,-0.111,-27.222,-80.444,4.883
0.092,-0.110,-0.069,-25.635,-70.190,4.822
0.020,-0.079,-0.052,-23.071,-61.768,2.625
0.000,-0.063,-0.041,-16.724,-55.603,-2.380
-0.023,-0.053,0.034,-9.155,-50.293,-9.216
-0.021,-0.023,0.061,-3.784,-46.814,-14.282
-0.031,-0.001,0.102,-0.427,-45.227,-15.625
-0.036,0.010,0.159,0.854,-45.410,-15.137
-0.035,0.051,0.179,-0.244,-44.739,-13.245
-0.046,0.079,0.197,-0.488,-47.546,-10.193
-0.100,0.101,0.246,2.930,-50.720,-5.371
-0.150,0.094,0.301,8.606,-50.049,-1.099
-0.173,0.057,0.366,12.878,-46.326,1.404
-0.203,0.015,0.447,14.465,-41.626,3.357
-0.238,-0.016,0.497,11.780,-34.424,5.005
-0.250,-0.004,0.501,4.028,-25.024,4.211
-0.233,0.030,0.501,-2.197,-17.395,1.404
-0.225,0.074,0.501,-1.526,-14.404,-0.305
-0.234,0.101,0.511,1.892,-14.099,0.305
-0.243,0.103,0.551,5.432,-14.343,1.099
-0.231,0.103,0.626,8.545,-14.282,0.061
-0.220,0.099,0.667,9.521,-11.353,-0.366
-0.214,0.106,0.720,9.827,-8.179,0.793
-0.215,0.097,0.771,10.071,-6.653,2.380
-0.209,0.086,0.804,8.789,-5.554,3.967
-0.211,0.075,0.787,6.531,-4.150,6.775
-0.234,0.058,0.774,4.944,-4.639,10.193
-0.250,0.046,0.784,4.456,-6.653,11.841
-0.261,0.039,0.773,4.761,-5.005,10.559
-0.263,0.047,0.758,6.104,-2.869,7.263
-0.262,0.064,0.765,8.728,-1.038,3.967
-0.245,0.060,0.785,12.939,0.671,1.038
-0.226,0.057,0.811,17.395,1.099,-1.404
-0.221,0.045,0.865,20.569,0.427,-2.869
-0.205,0.032,0.915,20.752,1.526,-3.174
-0.184,0.030,0.958,17.578,3.357,-2.441
-0.177,0.044,0.976,13.428,3.723,-0.671
-0.184,0.037,1.004,10.254,2.319,0.977
-0.175,0.047,1.007,6.165,0.732,2.991
-0.173,0.051,0.984,4.150,-0.549,5.859
-0.179,0.051,0.974,4.395,-3.235,8.667
-0.192,0.041,0.967,6.042,-5.432,10.742
-0.211,0.011,0.981,7.935,-6.287,11.780
-0.216,0.000,0.973,7.629,-4.456,11.658
-0.219,-0.001,0.956,5.615,-1.831,10.986
-0.222,-0.000,0.957,4.517,-1.099,10.376
-0.229,-0.001,0.943,4.456,-0.732,10.254
-0.237,-0.008,0.935,5.066,-0.854,10.376
-0.240,-0.018,0.924,5.310,-0.916,9.949
-0.248,-0.015,0.919,5.493,-0.244,8.606
-0.248,-0.017,0.917,6.104,-0.061,7.141
-0.253,-0.020,0.925,6.470,0.061,6.531
-0.251,-0.009,0.936,6.042,-0.122,5.615
-0.250,-0.018,0.910,5.127,0.366,4.272
-0.242,-0.015,0.942,6.287,0.305,3.845
-0.243,-0.020,0.954,7.324,0.000,3.906
-0.239,-0.023,0.968,6.592,0.793,3.845
-0.234,-0.036,0.964,5.188,2.136,3.540
-0.228,-0.039,0.958,2.625,2.747,2.380
-0.227,-0.022,0.938,0.549,1.526,1.099
-0.218,-0.021,0.919,0.854,-0.549,1.038
-0.218,-0.005,0.896,2.197,-2.197,1.709
-0.222,0.003,0.887,4.028,-3.418,2.136
-0.221,-0.000,0.892,7.080,-3.296,2.563
-0.225,0.005,0.911,8.972,-2.502,3.113
-0.232,-0.019,0.927,8.728,-1.648,3.174
-0.225,-0.029,0.961,8.057,0.000,3.723
-0.230,-0.032,0.973,6.226,1.831,4.333
-0.224,-0.028,0.968,3.418,3.662,4.395
-0.220,-0.008,0.955,1.953,4.089,4.395
-0.218,-0.021,0.939,1.831,2.869,4.089
-0.222,-0.003,0.936,3.052,1.282,4.150
-0.207,-0.013,0.902,4.272,0.061,4.211
-0.222,-0.000,0.907,5.737,-1.038,4.395
-0.225,-0.009,0.911,7.446,-1.160,4.150
-0.216,-0.030,0.900,7.935,0.244,5.005
-0.221,-0.010,0.929,7.080,1.160,6.287
-0.223,-0.021,0.932,5.249,2.563,6.165
-0.203,-0.021,0.921,3.357,3.967,5.920
-0.427,-1.121,1.868,-144.104,57.373,7.568
-0.488,-1.130,1.958,-149.658,41.504,-5.493
-0.527,-1.164,2.112,-155.884,36.804,-22.827
-0.537,-1.193,2.319,-168.091,38.940,-42.480
-0.473,-1.187,2.488,-193.604,62.561,-62.744
-0.308,-1.086,2.485,-226.013,94.238,-79.773
-0.118,-0.882,2.494,-244.690,93.079,-85.510
0.037,-0.706,2.628,-248.047,72.144,-86.853
0.256,-0.503,2.608,-239.563,64.392,-83.191
0.532,-0.412,2.608,-218.201,52.307,-72.388
0.741,-0.365,2.670,-193.665,29.907,-55.481
0.945,-0.332,2.686,-174.866,9.583,-38.635
1.092,-0.378,2.631,-154.663,-12.329,-27.100
1.248,-0.462,2.609,-129.822,-34.729,-18.494
1.397,-0.559,2.545,-112.366,-48.767,-16.785
1.618,-0.637,2.358,-107.666,-59.448,-22.217
1.754,-0.697,2.334,-113.281,-83.557,-27.283
1.864,-0.758,2.178,-128.052,-96.924,-28.198
1.997,-0.823,1.916,-146.606,-107.178,-26.794
2.026,-0.835,1.661,-158.630,-122.070,-22.888
1.937,-0.842,1.379,-161.560,-135.132,-21.729
1.935,-0.911,1.081,-157.104,-143.005,-31.006
1.893,-0.958,0.798,-147.095,-156.128,-44.006
1.782,-1.010,0.590,-134.399,-175.537,-55.664
1.779,-1.021,0.404,-123.657,-189.209,-65.613
1.785,-1.014,0.152,-119.507,-197.327,-67.627
1.662,-0.929,-0.106,-114.502,-202.881,-53.223
1.538,-0.961,-0.318,-106.506,-207.886,-35.156
1.368,-0.944,-0.493,-100.647,-205.566,-19.836
1.109,-0.890,-0.609,-94.788,-195.190,-7.690
0.927,-0.831,-0.637,-90.576,-178.833,-4.822
0.787,-0.771,-0.648,-86.121,-157.532,-9.460
0.681,-0.700,-0.612,-77.942,-138.123,-17.151
0.640,-0.611,-0.567,-70.251,-121.826,-25.330
0.622,-0.517,-0.514,-62.500,-110.046,-32.471
0.593,-0.369,-0.452,-53.101,-102.234,-36.316
0.561,-0.202,-0.349,-42.297,-98.694,-36.133
0.569,-0.182,-0.176,-27.710,-99.792,-35.461
0.532,-0.186,-0.058,-19.165,-101.196,-31.311
0.490,-0.200,0.015,-20.752,-101.257,-23.743
0.447,-0.245,-0.008,-25.879,-101.501,-15.015
0.338,-0.196,-0.089,-32.410,-104.736,-4.761
0.260,-0.132,-0.146,-35.583,-106.384,1.648
0.208,-0.111,-0.204,-30.640,-106.140,4.211
0.138,-0.076,-0.219,-19.836,-103.577,6.470
0.030,-0.055,-0.197,-6.409,-96.069,7.874
-0.017,-0.058,-0.137,5.371,-82.520,4.333
-0.036,-0.058,-0.084,11.963,-67.505,-1.099
-0.073,-0.042,-0.014,12.512,-55.664,-4.211
-0.094,-0.033,0.055,10.071,-47.058,-5.615
-0.103,-0.020,0.102,8.423,-42.419,-4.822
-0.133,-0.004,0.128,8.118,-42.358,-2.930
-0.192,0.019,0.186,9.827,-44.678,-1.160
-0.225,0.024,0.262,12.939,-45.105,-1.648
-0.232,0.028,0.317,16.235,-40.894,-4.944
-0.239,0.044,0.356,19.165,-35.522,-8.606
-0.240,0.062,0.397,21.973,-30.457,-10.681
-0.232,0.081,0.433,24.231,-25.085,-11.841
-0.221,0.083,0.453,25.635,-20.020,-12.024
-0.217,0.094,0.491,26.306,-15.503,-10.010
-0.210,0.100,0.528,25.757,-9.888,-7.263
-0.205,0.100,0.587,25.452,-5.066,-4.700
-0.209,0.089,0.628,25.757,-2.869,-1.343
-0.233,0.094,0.701,24.841,-3.418,3.418
-0.242,0.080,0.744,23.071,-3.540,6.042
-0.237,0.048,0.771,21.179,-2.441,6.714
-0.251,0.056,0.779,18.250,-1.709,6.470
-0.258,0.065,0.768,15.015,-1.221,5.493
-0.268,0.077,0.758,12.878,-1.526,4.150
-0.278,0.104,0.750,12.329,-1.404,2.686
-0.284,0.116,0.742,14.587,-0.671,1.221
-0.291,0.103,0.781,18.982,-1.587,-0.244
-0.295,0.077,0.841,22.766,-2.441,-0.854
-0.303,0.060,0.900,23.682,-1.160,-1.099
-0.291,0.049,0.973,22.644,1.831,-1.709
-0.264,0.037,1.007,19.409,5.371,-1.709
-0.245,0.036,1.043,14.099,6.836,-0.061
-0.236,0.028,1.071,8.667,5.493,1.526
-0.226,0.027,1.054,2.808,3.235,3.357
-0.226,0.044,1.010,-2.991,-0.305,5.737
-0.247,0.084,0.975,-6.348,-3.784,8.301
-0.278,0.082,0.939,-5.737,-6.104,9.338
-0.297,0.067,0.944,-1.343,-7.324,8.911
-0.306,0.039,0.976,3.113,-6.042,7.690
-0.307,0.016,0.998,5.249,-2.991,6.775
-0.305,-0.007,1.000,4.333,-0.305,6.348
-0.306,-0.017,0.997,2.319,0.122,6.653
-0.304,-0.010,0.980,0.000,0.000,6.775
-0.295,-0.003,0.952,-1.465,-0.427,6.042
-0.288,0.010,0.936,-1.404,-0.977,5.249
-0.291,0.023,0.934,0.671,-1.709,4.089
-0.285,0.017,0.947,3.235,-2.014,2.502
-0.280,0.015,0.953,4.944,-1.587,1.587
-0.267,0.022,0.953,5.493,-1.160,0.916
-0.261,0.021,0.957,5.920,-1.404,0.916
-0.261,0.016,0.968,6.287,-2.258,1.221
-0.265,0.017,0.960,6.287,-2.014,2.380
-0.271,0.010,0.962,5.981,-1.831,2.747
-0.266,0.002,0.964,4.883,-1.343,2.686
-0.269,-0.001,0.959,3.174,-0.916,2.625
-0.257,-0.005,0.957,1.038,-1.770,2.808
-0.263,0.006,0.956,-1.404,-2.380,3.357
-0.244,0.008,0.916,-2.747,-0.671,4.456
-0.247,0.006,0.903,-2.380,-1.953,4.272
-0.264,0.008,0.904,-1.831,-4.333,4.456
-0.276,0.008,0.882,0.244,-5.676,5.493
-0.284,-0.000,0.859,3.723,-6.165,6.165
-0.299,-0.005,0.859,5.737,-6.897,5.432
-0.303,-0.011,0.844,7.263,-7.324,4.456
-0.305,-0.020,0.831,9.521,-7.446,4.272
-0.313,-0.027,0.835,12.390,-7.446,3.784
-0.317,-0.029,0.846,14.709,-6.653,2.441
-0.287,-0.039,0.836,16.724,-4.456,0.977
-0.274,-0.044,0.850,18.494,-3.845,0.061
-0.255,-0.039,0.837,19.531,-3.540,0.000
-0.246,-0.028,0.817,20.813,-4.272,1.282
-0.255,-0.025,0.811,24.475,-7.141,2.747
-0.255,-0.038,0.811,29.602,-9.277,3.601
-0.248,-0.043,0.818,33.691,-11.230,3.723
-0.916,-1.044,2.481,-97.229,57.190,-1.648
-0.959,-1.213,2.897,-67.749,38.330,-10.925
-0.941,-1.341,3.335,-51.147,20.020,-21.057
-0.836,-1.480,3.775,-61.829,15.747,-31.860
-0.421,-1.559,3.930,-92.529,26.550,-43.701
-0.162,-1.499,3.777,-122.986,2.625,-51.208
0.230,-1.380,3.695,-152.832,-47.241,-57.617
0.590,-1.319,3.825,-173.401,-115.234,-57.678
0.901,-1.267,3.720,-189.331,-165.894,-52.917
1.187,-1.171,3.460,-201.599,-178.955,-44.128
1.510,-1.138,3.145,-202.698,-177.612,-37.964
1.707,-1.086,2.876,-192.444,-181.763,-32.410
1.887,-1.151,2.588,-175.232,-182.922,-28.320
2.001,-1.301,2.404,-164.124,-176.086,-25.085
2.079,-1.279,1.945,-163.818,-161.804,-17.090
2.143,-1.282,1.653,-169.128,-149.109,-16.296
2.209,-1.294,1.196,-169.983,-128.784,-25.269
2.259,-1.230,0.848,-170.898,-128.967,-30.334
2.205,-1.125,0.384,-169.739,-116.333,-32.532
2.143,-1.073,0.089,-160.522,-120.667,-36.865
2.032,-1.067,-0.269,-145.569,-138.062,-40.894
1.828,-1.038,-0.489,-129.211,-160.522,-36.987
1.647,-1.011,-0.764,-112.122,-177.307,-34.180
1.449,-1.000,-0.960,-97.168,-183.899,-33.752
1.184,-0.962,-1.068,-84.290,-177.490,-32.227
0.979,-0.906,-1.031,-74.707,-162.720,-35.522
0.848,-0.836,-0.944,-71.167,-142.029,-44.983
0.824,-0.688,-0.864,-70.740,-115.295,-56.458
0.839,-0.504,-0.788,-67.871,-90.271,-64.087
0.837,-0.332,-0.660,-58.472,-74.097,-67.810
0.826,-0.218,-0.524,-45.532,-65.491,-65.735
0.766,-0.135,-0.351,-32.532,-63.538,-58.044
0.707,-0.098,-0.196,-21.973,-66.040,-48.767
0.629,-0.102,-0.061,-17.883,-73.303,-39.246
0.536,-0.124,0.062,-22.400,-80.688,-30.334
0.469,-0.146,0.154,-33.813,-82.397,-23.621
0.448,-0.166,0.136,-47.791,-80.139,-18.372
0.395,-0.166,0.075,-59.937,-79.956,-11.536
0.295,-0.117,0.019,-67.688,-81.787,-3.174
0.194,-0.075,-0.060,-67.322,-80.933,3.540
0.087,-0.034,-0.091,-55.420,-77.332,8.057
0.005,-0.040,-0.064,-35.889,-70.679,9.460
-0.030,-0.061,-0.008,-16.846,-60.730,5.188
-0.023,-0.089,0.052,-2.625,-49.927,0.610
-0.072,-0.062,0.117,6.714,-40.649,-2.258
-0.104,-0.031,0.177,12.573,-34.729,-4.456
-0.116,-0.040,0.219,16.479,-30.884,-6.836
-0.123,-0.045,0.267,18.738,-30.579,-7.935
-0.141,-0.051,0.344,20.264,-31.555,-8.911
-0.135,-0.051,0.388,19.287,-30.518,-10.864
-0.138,-0.036,0.411,16.357,-28.503,-11.536
-0.175,-0.002,0.449,14.709,-27.893,-10.376
-0.211,0.020,0.486,13.977,-24.597,-9.949
-0.208,0.017,0.542,12.573,-17.700,-11.658
-0.192,0.016,0.576,9.949,-8.118,-12.756
-0.185,0.031,0.635,7.324,1.099,-11.902
-0.156,0.048,0.671,5.310,7.812,-10.193
-0.131,0.075,0.721,5.005,11.047,-7.141
-0.114,0.046,0.683,5.127,10.803,-4.089
-0.102,0.061,0.714,7.935,4.089,-0.854
-0.136,0.061,0.744,11.597,-4.761,1.648
-0.162,0.064,0.764,14.282,-10.010,2.808
-0.166,0.059,0.769,17.456,-12.451,3.723
-0.184,0.035,0.819,22.095,-14.526,4.089
-0.202,-0.009,0.870,24.536,-15.137,3.967
-0.213,-0.042,0.902,21.912,-13.611,4.089
-0.217,-0.055,0.909,15.015,-10.315,3.174
-0.209,-0.042,0.896,7.202,-5.920,2.380
-0.200,-0.007,0.870,2.136,-2.319,2.258
-0.195,0.020,0.851,1.343,-2.197,2.441
-0.207,0.027,0.844,3.601,-4.822,2.747
-0.221,0.013,0.857,7.568,-7.690,3.723
-0.244,-0.011,0.878,11.047,-8.362,4.944
-0.258,-0.035,0.893,12.878,-7.812,5.920
-0.273,-0.054,0.917,12.573,-6.592,6.165
-0.276,-0.075,0.952,10.986,-4.700,5.249
-0.279,-0.080,0.974,8.301,-1.526,4.456
-0.271,-0.083,0.988,5.127,1.465,3.357
-0.249,-0.092,0.981,2.014,1.587,2.441
-0.241,-0.083,0.958,-1.099,-0.671,2.136
-0.242,-0.062,0.923,-2.136,-3.418,2.869
-0.246,-0.044,0.888,-1.038,-5.188,3.540
-0.244,-0.024,0.875,1.709,-6.470,2.930
-0.251,-0.016,0.895,6.042,-7.263,2.014
-0.243,-0.040,0.924,10.071,-7.080,1.709
-0.240,-0.060,0.942,11.108,-5.981,2.319
-0.248,-0.064,0.947,9.216,-4.761,3.174
-0.257,-0.072,0.950,7.019,-3.418,3.784
-0.266,-0.076,0.945,4.700,-2.686,3.967
-0.266,-0.076,0.922,1.282,-2.625,3.357
-0.252,-0.066,0.906,-1.587,-3.540,2.502
-0.264,-0.052,0.898,-2.197,-4.761,2.380
-0.263,-0.050,0.894,-2.197,-4.883,3.113
-0.266,-0.055,0.886,-1.892,-4.639,4.028
-0.261,-0.062,0.873,-1.343,-3.967,4.822
-0.267,-0.062,0.868,-0.122,-2.686,5.554
-0.280,-0.064,0.882,2.075,-0.854,5.432
-0.273,-0.065,0.890,3.967,1.160,3.906
-0.259,-0.063,0.904,5.859,2.136,2.258
-0.253,-0.063,0.910,7.568,1.587,1.526
-0.255,-0.069,0.920,8.362,-0.488,1.526
-0.258,-0.079,0.919,7.690,-2.625,1.282
-0.261,-0.082,0.909,6.531,-3.784,1.465
-0.260,-0.084,0.891,5.066,-4.211,1.221
-0.262,-0.069,0.875,2.930,-3.662,1.099
-0.267,-0.059,0.867,2.136,-2.686,0.977
-0.262,-0.058,0.872,2.808,-1.099,0.916
-0.261,-0.064,0.875,3.784,0.916,0.916
-0.263,-0.075,0.888,5.188,2.136,0.977
-0.258,-0.093,0.885,5.676,2.869,0.854
-0.251,-0.090,0.880,5.615,2.991,0.916
-0.252,-0.086,0.876,5.798,2.625,0.305
-0.247,-0.085,0.873,6.653,2.441,-0.305
-0.236,-0.083,0.861,7.263,2.991,-0.183
-0.230,-0.084,0.849,8.301,3.235,0.427
-0.226,-0.092,0.840,10.315,2.014,0.854
-0.226,-0.102,0.830,11.841,0.122,1.709
-0.224,-0.114,0.814,12.451,-1.770,3.113
-0.219,-0.114,0.798,12.085,-2.747,4.517
0.447,-0.987,2.428,-129.028,51.941,-26.123
0.528,-1.074,2.501,-100.769,48.889,-32.104
0.647,-1.193,2.752,-74.219,20.874,-43.152
0.849,-1.328,2.954,-61.646,5.005,-60.913
1.082,-1.399,3.047,-70.923,-3.296,-78.125
1.377,-1.346,2.971,-105.835,-4.150,-93.079
1.727,-1.247,2.760,-151.184,-4.761,-100.220
1.944,-1.096,2.417,-183.411,-14.099,-93.384
2.058,-0.961,2.079,-193.054,-35.461,-75.745
1.866,-0.904,2.124,-177.124,-65.308,-57.556
2.071,-1.184,1.880,-153.564,-82.947,-57.678
2.103,-1.477,1.822,-133.057,-96.802,-62.439
2.058,-1.498,1.417,-129.456,-102.966,-59.143
1.909,-1.498,1.201,-144.592,-107.666,-61.279
1.983,-1.462,1.054,-161.499,-110.535,-72.632
2.081,-1.411,0.805,-178.528,-113.220,-80.078
2.099,-1.319,0.454,-191.528,-123.108,-77.332
2.082,-1.195,0.153,-201.721,-148.499,-66.711
1.988,-1.129,0.018,-203.613,-182.190,-45.044
1.817,-1.102,-0.176,-190.857,-207.092,-18.738
1.604,-1.074,-0.307,-176.636,-220.703,-1.160
1.433,-1.050,-0.434,-161.865,-226.257,7.751
1.197,-1.025,-0.443,-143.127,-225.830,9.766
1.038,-1.004,-0.476,-128.174,-213.684,4.761
0.957,-0.958,-0.531,-120.667,-196.167,-1.526
0.865,-0.854,-0.622,-115.417,-179.749,-6.409
0.790,-0.693,-0.722,-112.427,-168.701,-12.634
0.758,-0.560,-0.820,-108.154,-163.025,-18.005
0.693,-0.418,-0.886,-97.290,-160.339,-20.264
0.562,-0.305,-0.929,-81.055,-160.400,-21.667
0.458,-0.213,-0.856,-64.209,-160.706,-23.132
0.377,-0.165,-0.787,-49.866,-153.687,-24.658
0.297,-0.102,-0.715,-37.964,-141.846,-25.085
0.223,-0.045,-0.587,-31.189,-127.136,-25.635
0.212,-0.015,-0.517,-28.931,-107.239,-27.527
0.188,0.029,-0.453,-28.625,-86.670,-27.283
0.180,0.087,-0.460,-32.349,-67.139,-23.132
0.158,0.111,-0.503,-36.560,-56.519,-16.113
0.089,0.135,-0.534,-36.255,-60.059,-6.409
-0.032,0.129,-0.511,-29.907,-68.054,1.892
-0.101,0.090,-0.441,-20.203,-73.181,3.235
-0.123,0.049,-0.368,-11.719,-72.693,-1.099
-0.154,0.087,-0.328,-7.629,-69.397,-5.066
-0.185,0.108,-0.283,-4.211,-63.232,-7.446
-0.210,0.110,-0.229,-0.305,-52.429,-10.986
-0.245,0.138,-0.208,3.784,-39.368,-14.404
-0.244,0.159,-0.193,8.301,-28.687,-16.296
-0.248,0.162,-0.152,15.381,-22.583,-15.015
-0.281,0.159,-0.084,21.851,-20.447,-11.169
-0.301,0.142,0.022,23.132,-15.991,-7.019
-0.302,0.144,0.125,19.653,-6.592,-4.822
-0.315,0.163,0.227,17.090,2.319,-3.052
-0.286,0.154,0.323,17.639,6.287,-1.404
-0.295,0.146,0.404,18.250,6.409,-0.549
-0.305,0.134,0.450,17.395,4.944,-0.305
-0.323,0.141,0.492,18.616,4.822,0.366
-0.358,0.149,0.486,22.400,7.385,1.282
-0.369,0.140,0.520,27.466,9.338,-0.061
-0.378,0.122,0.606,34.485,11.230,-2.258
-0.370,0.101,0.732,41.321,13.855,-4.639
-0.341,0.069,0.862,43.762,17.822,-7.568
-0.303,0.052,0.942,40.649,22.400,-8.728
-0.277,0.052,0.986,34.058,23.804,-7.996
-0.277,0.073,1.002,27.100,22.278,-5.615
-0.278,0.064,1.035,22.217,19.226,-3.662
-0.251,0.052,1.024,16.968,17.273,-2.747
-0.231,0.064,0.994,12.634,14.709,-0.183
-0.244,0.069,0.986,10.681,9.338,3.235
-0.256,0.057,0.962,11.292,6.714,5.432
-0.275,0.027,0.965,12.939,5.005,7.507
-0.295,0.005,0.964,12.695,6.531,9.949
-0.305,-0.005,0.966,12.512,10.498,10.986
-0.306,-0.015,0.977,14.465,14.221,10.071
-0.292,-0.019,1.003,17.090,15.015,7.202
-0.274,-0.029,1.041,18.799,14.526,2.808
-0.257,-0.023,1.044,19.043,13.428,-0.488
-0.242,-0.021,1.047,17.639,11.841,-1.587
-0.239,-0.012,1.041,15.808,10.986,-0.977
-0.238,-0.026,1.024,13.611,10.193,0.671
-0.249,-0.038,1.005,10.742,8.667,2.991
-0.278,-0.040,0.991,8.179,8.057,4.700
-0.292,-0.061,0.992,7.141,8.850,4.456
-0.300,-0.073,0.989,6.714,10.071,3.784
-0.304,-0.077,0.990,6.226,11.230,2.808
-0.293,-0.072,0.973,5.127,12.939,0.732
-0.273,-0.063,0.961,4.517,13.733,-0.916
-0.270,-0.059,0.971,6.287,12.695,-1.404
-0.269,-0.057,0.983,9.094,11.780,-2.319
-0.251,-0.071,0.997,11.353,11.658,-3.784
-0.239,-0.052,0.974,11.353,12.329,-5.493
-0.233,-0.037,0.965,12.024,10.803,-6.531
-0.225,-0.042,0.978,15.015,8.240,-6.958
-0.216,-0.052,0.980,17.700,6.042,-7.141
-0.214,-0.051,0.994,18.921,4.272,-6.775
-0.213,-0.065,1.000,18.433,4.395,-5.554
-0.213,-0.058,0.982,15.198,6.714,-4.517
-0.217,-0.039,0.994,11.780,7.202,-4.089
-0.209,-0.037,0.998,10.498,6.897,-3.540
-0.194,-0.046,1.000,10.071,5.432,-2.563
-0.188,-0.052,1.007,9.460,2.869,-1.160
-0.213,-0.049,1.010,8.606,1.404,1.099
-0.216,-0.061,1.000,6.165,1.831,2.441
-0.213,-0.071,0.996,2.686,3.113,1.831
-0.211,-0.060,1.003,0.549,3.723,1.099
-0.185,-0.053,0.996,-0.122,4.089,0.488
-0.178,-0.041,0.977,-0.061,3.296,0.061
-0.194,-0.022,0.972,2.258,1.526,-0.427
-0.198,-0.038,0.975,5.371,1.038,-1.526
-0.186,-0.052,0.980,7.080,2.502,-2.869
-0.178,-0.041,0.991,6.348,3.784,-4.028
-0.172,-0.038,0.982,5.676,4.517,-3.906
-0.182,-0.043,0.990,6.714,2.930,-3.235
-0.185,-0.053,0.992,7.507,1.099,-2.930
-0.177,-0.053,0.995,6.470,0.793,-3.174
-0.171,-0.033,0.982,5.737,1.892,-2.991
-0.164,-0.035,0.973,5.920,1.770,-2.319
-0.167,-0.046,0.962,5.859,0.244,-0.793
-0.174,-0.052,0.948,5.310,-1.343,1.282
-0.180,-0.053,0.905,3.784,-2.380,2.808
0.771,-0.918,2.063,-106.201,4.089,-10.437
0.818,-0.896,2.119,-107.727,-14.221,-13.611
0.937,-0.915,2.322,-105.042,-48.645,-15.625
1.068,-0.944,2.354,-112.549,-51.636,-20.874
1.188,-0.904,2.248,-123.474,-51.147,-21.667
1.308,-0.896,2.161,-135.559,-51.270,-23.254
1.453,-0.843,1.982,-146.179,-56.519,-25.330
1.569,-0.764,1.788,-151.550,-72.144,-23.254
1.661,-0.752,1.677,-151.672,-93.506,-19.043
1.694,-0.763,1.539,-148.499,-119.446,-12.512
1.691,-0.765,1.455,-150.146,-145.752,-5.188
1.662,-0.829,1.343,-153.076,-167.114,1.221
1.633,-0.873,1.165,-153.625,-179.687,7.080
1.599,-0.880,0.928,-151.672,-189.270,10.681
1.524,-0.881,0.699,-148.926,-198.120,11.719
1.458,-0.889,0.449,-143.921,-204.834,10.803
1.334,-0.888,0.223,-136.597,-208.801,10.803
1.173,-0.812,-0.008,-127.930,-209.473,14.282
1.010,-0.794,-0.193,-117.493,-206.055,16.663
0.860,-0.752,-0.382,-105.774,-201.416,15.991
0.683,-0.694,-0.476,-89.539,-195.496,12.329
0.553,-0.652,-0.506,-71.594,-186.707,4.395
0.473,-0.589,-0.524,-55.420,-176.819,-5.737
0.390,-0.530,-0.489,-38.940,-168.213,-15.625
0.313,-0.482,-0.413,-25.452,-156.006,-24.963
0.289,-0.421,-0.331,-17.273,-140.625,-34.302
0.297,-0.335,-0.278,-15.381,-126.587,-40.588
0.295,-0.227,-0.254,-15.503,-115.906,-42.053
0.318,-0.155,-0.252,-12.390,-108.398,-40.588
0.302,-0.130,-0.208,-6.104,-106.934,-37.231
0.266,-0.117,-0.158,-2.808,-106.689,-32.349
0.238,-0.108,-0.147,-3.479,-103.149,-28.931
0.194,-0.046,-0.180,-7.202,-97.290,-26.367
0.135,0.018,-0.221,-9.033,-91.125,-23.621
0.062,0.062,-0.217,-5.432,-85.327,-21.606
0.009,0.092,-0.203,1.587,-78.552,-21.362
-0.029,0.087,-0.162,10.132,-71.960,-22.034
-0.077,0.060,-0.058,18.799,-66.711,-22.949
-0.102,0.026,0.049,23.804,-60.486,-24.780
-0.088,0.014,0.097,23.071,-53.528,-26.489
-0.097,0.023,0.126,18.127,-50.049,-26.062
-0.128,0.076,0.114,11.841,-46.570,-23.865
-0.141,0.144,0.071,6.958,-40.771,-20.874
-0.151,0.184,0.084,5.188,-35.645,-18.677
-0.164,0.209,0.112,7.324,-30.640,-15.503
-0.189,0.223,0.168,12.695,-26.245,-10.986
-0.217,0.196,0.262,20.264,-24.048,-7.385
-0.251,0.157,0.367,25.269,-20.691,-6.836
-0.280,0.125,0.468,26.917,-15.930,-6.897
-0.298,0.115,0.540,26.428,-9.766,-7.324
-0.291,0.110,0.609,24.170,-3.174,-8.423
-0.275,0.117,0.635,21.484,1.099,-8.667
-0.266,0.118,0.644,19.470,1.953,-7.019
-0.287,0.125,0.666,18.555,0.854,-4.700
-0.294,0.133,0.675,17.944,1.526,-3.357
-0.286,0.135,0.677,17.883,3.357,-2.686
-0.293,0.134,0.693,19.348,5.371,-1.099
-0.312,0.105,0.736,22.644,7.202,0.000
-0.326,0.075,0.791,24.719,9.338,-0.549
-0.316,0.060,0.814,23.437,12.451,-0.916
-0.316,0.042,0.854,21.301,13.550,-0.732
-0.322,0.040,0.889,18.738,14.038,-0.305
-0.337,0.036,0.914,15.503,14.893,-0.366
-0.300,0.040,0.918,13.184,14.954,0.183
-0.279,0.035,0.946,11.902,11.047,1.953
-0.281,0.040,0.957,8.911,7.690,3.967
-0.290,0.051,0.941,6.470,5.554,7.019
-0.306,0.048,0.941,6.409,3.235,9.583
-0.321,0.031,0.956,7.751,1.343,10.681
-0.333,0.023,0.970,9.216,0.977,10.925
-0.332,0.007,0.993,10.193,1.282,10.437
-0.333,-0.002,1.015,9.583,1.526,9.888
-0.340,-0.005,1.014,7.996,2.014,10.132
-0.336,-0.008,0.990,7.202,1.343,10.559
-0.351,-0.011,0.975,8.362,-1.953,11.414
-0.377,-0.031,0.981,10.620,-5.249,11.780
-0.383,-0.050,0.972,11.475,-5.676,10.925
-0.382,-0.057,0.943,10.437,-4.333,10.132
-0.387,-0.057,0.929,10.071,-3.540,9.521
-0.389,-0.069,0.934,10.864,-3.357,8.850
-0.391,-0.081,0.928,11.292,-2.625,8.301
-0.399,-0.091,0.933,10.925,-1.892,7.935
-0.404,-0.097,0.932,9.460,-0.427,6.836
-0.392,-0.091,0.924,7.568,1.343,5.981
-0.384,-0.082,0.928,6.897,1.953,4.761
-0.369,-0.078,0.941,7.263,2.014,3.845
-0.354,-0.082,0.934,7.751,1.953,3.784
-0.358,-0.072,0.948,7.874,0.732,4.089
-0.352,-0.070,0.942,8.179,-0.427,3.662
-0.350,-0.068,0.949,9.827,-1.587,3.784
-0.359,-0.078,0.966,12.268,-3.662,4.150
-0.360,-0.096,0.987,12.939,-5.249,4.578
-0.363,-0.101,1.000,9.766,-5.005,5.066
-0.359,-0.093,0.967,4.395,-2.930,5.432
-0.354,-0.075,0.940,0.488,-2.197,5.005
-0.352,-0.067,0.909,0.122,-2.502,4.944
-0.361,-0.070,0.906,2.136,-4.028,5.554
-0.364,-0.087,0.903,4.150,-5.920,5.615
-0.370,-0.097,0.901,4.761,-6.592,5.188
-0.375,-0.092,0.887,3.479,-4.578,4.517
-0.373,-0.075,0.874,2.502,-1.526,3.540
-0.365,-0.069,0.870,3.784,-0.366,2.502
-0.364,-0.081,0.891,6.714,-0.854,2.136
-0.376,-0.092,0.923,8.667,-1.404,1.831
-0.381,-0.107,0.957,7.935,-0.732,0.916
-0.369,-0.113,0.919,4.211,2.014,0.061
-0.359,-0.080,0.917,2.258,2.441,-0.183
-0.358,-0.071,0.911,3.357,0.427,0.122
-0.367,-0.088,0.919,4.700,-1.221,-0.244
-0.363,-0.067,0.917,4.089,-0.854,0.122
-0.358,-0.067,0.911,3.784,-0.427,-0.488
-0.352,-0.065,0.907,2.991,-0.549,-1.648
-0.348,-0.051,0.898,2.380,-0.671,-2.014
-0.346,-0.045,0.884,3.113,-0.916,-1.587
-0.341,-0.050,0.881,4.761,-1.404,-0.854
-0.343,-0.045,0.875,5.432,-2.136,-0.305
-0.357,-0.047,0.888,6.104,-2.502,0.122
-0.351,-0.068,0.882,6.897,-1.587,0.244
-0.352,-0.069,0.883,6.287,-0.244,-0.793
0.887,-0.789,1.954,-68.481,21.790,-55.237
1.027,-0.715,1.929,-78.674,7.507,-60.669
1.120,-0.624,1.871,-85.693,-7.690,-58.655
1.196,-0.603,1.834,-85.449,-25.940,-50.781
1.231,-0.669,1.864,-80.383,-46.509,-42.847
1.280,-0.735,1.928,-75.867,-62.256,-36.194
1.354,-0.831,1.972,-73.364,-71.960,-35.400
1.451,-0.895,2.023,-75.500,-82.336,-39.673
1.570,-0.935,2.057,-81.055,-99.304,-43.701
1.685,-0.971,2.093,-84.412,-125.488,-44.800
1.785,-1.028,2.150,-88.562,-156.067,-43.396
1.934,-1.127,2.118,-102.478,-176.392,-41.992
1.896,-1.150,2.078,-124.573,-185.974,-41.077
2.046,-1.176,1.739,-149.292,-196.838,-40.833
2.060,-1.152,1.561,-168.091,-207.214,-41.016
2.049,-1.049,1.262,-179.565,-209.412,-40.466
2.053,-1.006,1.079,-182.068,-213.379,-38.452
2.003,-0.958,0.816,-176.758,-215.454,-33.508
1.923,-0.964,0.704,-170.898,-224.182,-28.687
1.859,-0.974,0.601,-167.603,-232.117,-22.034
1.766,-0.979,0.450,-164.307,-239.380,-12.451
1.651,-0.976,0.325,-159.790,-246.338,-5.432
1.580,-0.992,0.174,-155.457,-254.456,-3.113
1.476,-0.960,-0.030,-150.024,-257.568,-0.610
1.357,-0.885,-0.225,-142.761,-255.066,0.366
1.243,-0.824,-0.415,-132.751,-250.488,-0.671
1.018,-0.707,-0.578,-123.474,-243.896,0.610
0.874,-0.645,-0.674,-110.168,-230.957,-0.610
0.756,-0.605,-0.743,-93.750,-214.172,-5.371
0.620,-0.531,-0.747,-77.515,-198.181,-8.728
0.496,-0.479,-0.687,-60.303,-182.922,-10.925
0.411,-0.435,-0.623,-45.166,-167.542,-15.076
0.308,-0.383,-0.521,-34.241,-152.954,-19.775
0.228,-0.326,-0.429,-28.809,-137.512,-24.109
0.222,-0.254,-0.379,-25.513,-121.338,-27.344
0.201,-0.180,-0.309,-20.020,-111.084,-29.907
0.162,-0.103,-0.254,-15.381,-106.140,-31.128
0.157,-0.068,-0.199,-12.085,-101.563,-30.334
0.149,-0.060,-0.164,-9.521,-95.459,-27.832
0.128,-0.021,-0.129,-10.254,-87.463,-24.353
0.106,0.019,-0.124,-13.611,-81.299,-20.874
0.090,0.067,-0.147,-16.846,-78.125,-16.541
0.066,0.100,-0.150,-16.724,-77.637,-11.963
0.020,0.120,-0.138,-13.977,-78.430,-7.507
-0.036,0.129,-0.100,-10.071,-78.308,-4.150
-0.088,0.126,-0.061,-6.470,-75.012,-1.770
-0.128,0.117,-0.036,-3.723,-68.237,-0.610
-0.177,0.108,0.000,-1.648,-60.730,0.732
-0.229,0.095,0.052,0.732,-51.331,1.892
-0.263,0.097,0.088,3.174,-39.978,2.441
-0.284,0.093,0.143,6.104,-30.762,2.380
-0.295,0.087,0.214,8.972,-23.987,2.136
-0.300,0.090,0.291,9.583,-18.250,1.831
-0.303,0.118,0.330,7.690,-12.695,2.319
-0.305,0.119,0.387,5.493,-9.583,2.441
-0.298,0.131,0.402,3.601,-7.263,2.991
-0.300,0.149,0.419,4.578,-5.798,4.578
-0.326,0.150,0.457,8.362,-5.371,6.592
-0.350,0.153,0.480,13.062,-3.540,8.179
-0.359,0.134,0.520,17.883,-1.343,8.667
-0.376,0.107,0.576,21.667,0.610,8.179
-0.393,0.094,0.603,22.949,3.174,7.874
-0.406,0.073,0.634,23.071,4.700,7.690
-0.412,0.063,0.664,22.461,5.432,6.775
-0.405,0.054,0.683,21.667,6.042,5.127
-0.440,0.054,0.716,21.423,7.019,3.662
-0.433,0.047,0.748,21.301,7.996,1.831
-0.418,0.039,0.784,20.081,9.277,-0.122
-0.401,0.041,0.810,18.738,9.827,-1.160
-0.392,0.039,0.844,17.822,9.033,-1.038
-0.389,0.039,0.869,16.663,8.606,-0.366
-0.384,0.042,0.878,15.259,9.216,0.549
-0.382,0.037,0.894,14.587,9.338,1.343
-0.385,0.042,0.914,14.465,9.644,2.014
-0.383,0.040,0.929,14.526,10.315,2.625
-0.375,0.031,0.949,14.832,11.169,2.502
-0.360,0.024,0.952,13.916,12.573,2.502
-0.347,0.028,0.955,13.245,13.550,3.052
-0.342,0.030,0.956,14.038,13.245,3.967
-0.341,0.026,0.978,15.625,11.536,5.310
-0.346,0.013,0.988,17.578,10.010,6.958
-0.346,-0.014,1.004,18.738,8.057,8.057
-0.357,-0.019,1.021,17.212,7.385,9.094
-0.354,-0.025,1.000,14.404,8.606,10.498
-0.355,-0.015,0.973,10.742,9.583,11.292
-0.362,-0.009,0.961,8.057,9.705,11.108
-0.370,-0.010,0.944,7.568,9.583,11.902
-0.359,-0.030,0.947,7.935,9.949,12.451
-0.357,-0.059,0.941,8.850,9.583,12.573
-0.370,-0.058,0.935,8.606,7.935,12.207
-0.386,-0.058,0.929,8.728,5.737,11.230
-0.394,-0.063,0.920,9.033,4.150,10.132
-0.391,-0.057,0.895,9.155,3.906,9.338
-0.387,-0.055,0.876,9.766,3.845,8.911
-0.393,-0.054,0.862,11.902,3.357,8.240
-0.398,-0.064,0.864,14.526,3.052,7.629
-0.405,-0.088,0.899,17.273,3.540,6.470
-0.398,-0.099,0.916,16.724,6.592,4.639
-0.384,-0.102,0.903,14.160,10.132,3.296
-0.379,-0.107,0.895,12.207,11.658,1.831
-0.375,-0.092,0.901,11.475,11.719,0.732
-0.373,-0.082,0.886,11.108,9.766,-0.610
-0.371,-0.069,0.883,12.817,6.104,-0.977
-0.368,-0.076,0.894,15.503,2.930,-1.282
-0.359,-0.083,0.898,17.761,1.648,-1.343
-0.359,-0.092,0.908,20.081,0.916,-0.916
-0.357,-0.111,0.939,21.606,0.793,-0.977
-0.354,-0.117,0.958,20.447,2.502,-1.160
-0.357,-0.100,0.969,16.418,4.822,-0.732
-0.347,-0.095,0.948,12.268,6.775,0.488
-0.354,-0.091,0.941,10.071,6.958,1.709
-0.350,-0.090,0.924,9.766,6.653,2.869
-0.352,-0.096,0.929,10.559,6.531,3.540
-0.354,-0.102,0.942,11.108,5.920,3.113
-0.351,-0.115,0.959,11.353,6.104,2.319
-0.351,-0.119,0.968,10.742,6.226,1.953
-0.349,-0.116,0.973,9.460,5.859,1.770
-0.335,-0.112,0.963,8.362,4.944,1.648
-0.333,-0.108,0.956,7.812,3.174,1.953
0.439,-0.841,2.649,-55.664,-11.719,-54.749
0.698,-0.929,2.728,-60.059,-6.042,-62.378
0.991,-1.007,2.710,-69.031,-10.498,-69.153
1.254,-1.084,2.776,-80.261,-41.077,-74.585
1.444,-1.117,2.801,-100.464,-76.599,-76.050
1.601,-1.123,2.710,-126.404,-95.398,-74.890
1.748,-1.177,2.473,-152.649,-99.670,-73.853
1.870,-1.199,2.175,-173.462,-114.624,-68.726
1.921,-1.169,1.886,-187.195,-136.353,-62.500
1.998,-1.195,1.546,-192.688,-152.405,-52.612
1.986,-1.240,1.090,-189.819,-164.307,-40.527
1.883,-1.269,0.736,-179.565,-176.453,-25.391
1.720,-1.244,0.137,-164.185,-182.312,-12.573
1.521,-1.264,-0.119,-149.170,-195.374,-11.353
1.358,-1.185,-0.509,-132.996,-202.698,-16.235
1.207,-1.081,-0.627,-112.732,-204.041,-24.658
1.021,-0.933,-0.717,-94.604,-194.885,-30.273
0.914,-0.831,-0.733,-75.195,-177.124,-32.104
0.771,-0.733,-0.696,-56.946,-158.752,-29.358
0.632,-0.645,-0.591,-44.189,-143.799,-25.452
0.577,-0.584,-0.437,-36.438,-130.005,-25.574
0.535,-0.486,-0.340,-32.043,-118.347,-27.832
0.520,-0.372,-0.243,-30.579,-109.741,-28.870
0.540,-0.281,-0.163,-29.053,-103.088,-29.846
0.552,-0.188,-0.132,-27.710,-100.891,-30.762
0.521,-0.082,-0.121,-27.100,-102.966,-28.564
0.492,-0.020,-0.105,-21.606,-105.164,-23.315
0.448,-0.002,-0.103,-10.925,-104.187,-17.090
0.345,-0.005,-0.047,1.038,-100.830,-11.902
0.244,-0.037,0.023,12.573,-94.604,-8.728
0.184,-0.072,0.096,20.325,-87.524,-7.263
0.125,-0.121,0.140,22.034,-80.933,-6.775
0.079,-0.135,0.203,19.409,-73.669,-5.798
0.049,-0.146,0.233,12.390,-65.247,-4.944
0.039,-0.110,0.229,2.380,-58.655,-4.150
0.013,-0.048,0.200,-6.042,-55.786,-3.357
-0.011,0.002,0.175,-9.094,-53.833,-2.319
-0.046,0.045,0.167,-9.338,-51.453,-1.160
-0.093,0.067,0.198,-7.507,-51.392,-1.648
-0.130,0.054,0.239,-2.441,-51.331,-2.380
-0.161,0.026,0.284,3.845,-49.622,-1.465
-0.205,0.040,0.319,6.836,-45.898,0.244
-0.229,0.039,0.354,8.972,-40.649,0.610
-0.266,0.023,0.439,15.747,-25.940,1.404
-0.270,0.014,0.500,16.479,-21.362,0.000
-0.262,0.018,0.551,0.122,-18.555,-1.404
-0.261,0.049,0.605,10.986,-19.165,0.427
-0.267,0.049,0.627,9.460,-20.203,2.075
-0.262,0.039,0.624,7.141,-21.057,3.784
-0.292,0.059,0.619,5.066,-21.729,5.615
-0.311,0.066,0.615,4.578,-20.813,6.653
-0.325,0.058,0.622,5.798,-18.372,6.775
-0.339,0.050,0.630,7.690,-15.686,6.531
-0.367,0.028,0.647,9.949,-13.428,6.104
-0.395,0.003,0.698,11.536,-10.193,4.517
-0.395,-0.012,0.734,11.353,-5.249,1.953
-0.388,-0.006,0.760,8.728,-0.732,0.366
-0.386,0.004,0.770,5.920,2.319,-0.183
-0.385,0.020,0.777,4.333,5.005,0.000
-0.366,0.028,0.782,3.479,6.836,-0.427
-0.348,0.032,0.777,3.052,8.484,0.061
-0.334,0.046,0.770,3.723,8.728,1.770
-0.338,0.051,0.766,5.859,7.080,3.479
-0.355,0.058,0.773,8.240,3.967,4.700
-0.370,0.045,0.795,11.658,1.831,4.944
-0.382,0.024,0.826,15.991,0.549,4.578
-0.392,0.009,0.867,18.188,0.549,4.395
-0.387,-0.013,0.895,17.944,2.258,4.333
-0.385,-0.026,0.920,15.747,3.967,4.456
-0.379,-0.027,0.924,12.329,5.615,5.066
-0.380,-0.023,0.924,9.094,7.141,6.653
-0.385,-0.029,0.920,6.897,8.179,8.484
-0.389,-0.041,0.914,4.272,9.277,9.827
-0.397,-0.034,0.888,2.075,11.658,11.169
-0.394,-0.036,0.862,1.709,12.939,11.230
-0.403,-0.031,0.852,2.319,11.414,9.888
-0.404,-0.038,0.857,4.028,9.766,8.667
-0.395,-0.067,0.879,6.104,8.728,8.179
-0.394,-0.073,0.876,6.226,9.338,9.094
-0.381,-0.068,0.872,5.432,10.071,9.888
-0.412,-0.069,0.888,5.188,11.536,9.216
-0.394,-0.071,0.880,4.761,13.550,8.972
-0.374,-0.079,0.888,4.395,15.015,8.484
-0.362,-0.074,0.876,3.662,14.038,8.728
-0.354,-0.071,0.874,3.235,11.536,9.155
-0.343,-0.079,0.868,3.418,8.789,8.850
-0.339,-0.078,0.866,3.723,5.859,8.118
-0.337,-0.068,0.862,3.662,3.113,7.446
-0.334,-0.065,0.861,4.211,0.732,7.874
-0.338,-0.066,0.857,4.456,-1.404,8.057
-0.351,-0.073,0.861,4.578,-3.052,8.118
-0.356,-0.081,0.861,4.761,-3.540,8.362
-0.367,-0.086,0.856,4.578,-2.563,9.216
-0.375,-0.091,0.859,4.700,-1.465,9.155
-0.374,-0.095,0.860,4.456,-0.549,8.362
-0.372,-0.097,0.866,4.456,-0.122,7.629
-0.369,-0.100,0.872,5.127,0.427,7.751
-0.384,-0.119,0.885,6.165,1.587,8.240
-0.390,-0.118,0.895,6.104,4.211,8.484
-0.381,-0.116,0.902,5.493,6.653,7.629
-0.371,-0.114,0.924,5.127,7.629,6.775
-0.366,-0.129,0.907,4.517,7.935,6.958
-0.367,-0.109,0.924,4.639,6.958,7.629
-0.375,-0.115,0.918,4.272,5.981,7.324
-0.366,-0.123,0.901,3.723,5.066,7.141
-0.376,-0.117,0.907,3.784,3.845,7.080
-0.378,-0.119,0.911,4.822,3.296,7.019
-0.375,-0.121,0.921,5.310,3.723,6.470
-0.375,-0.120,0.924,5.249,4.639,5.188
-0.366,-0.119,0.933,5.310,4.944,4.395
-0.367,-0.121,0.945,4.700,5.188,3.601
-0.366,-0.109,0.945,3.296,5.493,2.686
-0.357,-0.103,0.945,2.930,6.104,2.258
-0.349,-0.103,0.951,4.150,5.676,1.831
-0.347,-0.102,0.958,5.005,4.578,1.709
-0.342,-0.105,0.965,5.066,3.357,1.587
-0.339,-0.109,0.962,3.845,2.747,1.404
-0.343,-0.097,0.959,2.075,3.174,1.587
-0.346,-0.085,0.957,1.160,4.089,2.136
0.499,-0.717,2.477,-54.504,-3.723,-11.902
0.714,-0.759,2.556,-40.527,-23.743,-28.687
0.944,-0.815,2.627,-28.442,-39.124,-45.410
1.140,-0.836,2.657,-21.057,-50.659,-58.716
1.356,-0.840,2.699,-18.738,-67.017,-66.772
1.595,-0.857,2.729,-27.283,-83.923,-74.585
1.800,-0.841,2.667,-49.316,-95.947,-80.994
1.974,-0.819,2.593,-74.524,-111.755,-82.153
2.153,-0.826,2.453,-93.628,-129.578,-78.247
2.259,-0.835,2.311,-108.948,-148.376,-74.097
2.354,-0.869,2.132,-124.268,-172.302,-72.693
2.389,-0.946,1.889,-138.916,-196.106,-74.707
2.389,-1.003,1.646,-155.090,-214.111,-76.599
2.390,-1.025,1.367,-172.302,-228.577,-75.989
2.370,-1.093,1.032,-187.134,-237.976,-76.416
2.340,-1.126,0.647,-199.036,-247.131,-79.895
2.294,-1.123,0.310,-204.773,-260.559,-78.979
2.163,-1.074,-0.042,-200.684,-270.630,-68.115
2.023,-1.009,-0.364,-187.500,-276.733,-51.270
1.795,-0.899,-0.647,-169.617,-280.457,-30.396
1.510,-0.796,-0.826,-147.583,-277.832,-10.254
1.231,-0.701,-0.924,-127.014,-261.108,-2.441
0.830,-0.540,-0.764,-107.849,-231.934,-5.798
0.947,-0.719,-0.957,-90.637,-200.317,-22.583
0.785,-0.592,-0.839,-72.510,-185.059,-23.926
0.560,-0.458,-0.748,-49.072,-167.053,-20.325
0.504,-0.479,-0.663,-27.222,-146.973,-26.978
0.452,-0.421,-0.519,-12.878,-136.963,-36.133
0.422,-0.352,-0.432,-7.874,-129.272,-41.931
0.407,-0.283,-0.383,-6.042,-121.582,-44.617
0.390,-0.198,-0.339,-6.775,-116.272,-44.128
0.362,-0.118,-0.318,-10.803,-109.375,-41.992
0.327,-0.051,-0.281,-14.404,-99.609,-39.734
0.293,0.002,-0.266,-16.663,-86.548,-37.354
0.274,0.010,-0.262,-17.090,-73.364,-33.203
0.218,0.023,-0.243,-14.465,-64.026,-26.184
0.137,0.026,-0.225,-10.132,-58.105,-18.555
0.050,0.002,-0.196,-6.287,-56.946,-12.390
-0.032,-0.007,-0.154,-3.479,-57.678,-7.751
-0.089,-0.018,-0.128,-0.183,-58.350,-5.676
-0.138,-0.032,-0.052,3.296,-61.157,-5.127
-0.170,-0.054,0.015,5.188,-61.707,-5.432
-0.216,-0.054,0.073,4.089,-58.167,-7.996
-0.234,-0.023,0.082,-1.770,-50.232,-12.512
-0.243,0.013,0.084,-8.057,-39.734,-15.869
-0.254,0.067,0.074,-10.376,-27.832,-15.747
-0.258,0.087,0.076,-7.568,-17.090,-12.634
-0.272,0.090,0.118,-0.732,-8.545,-6.836
-0.302,0.083,0.177,6.897,-2.930,-0.732
-0.325,0.087,0.251,11.841,1.282,3.601
-0.326,0.091,0.308,15.198,7.080,5.798
-0.342,0.079,0.386,19.409,10.071,6.653
-0.349,0.049,0.468,21.973,10.803,5.798
-0.360,0.043,0.538,22.644,11.719,4.272
-0.365,0.033,0.596,21.179,12.939,2.441
-0.364,0.032,0.636,18.860,12.939,1.404
-0.358,0.025,0.652,16.663,11.719,0.977
-0.335,0.017,0.656,15.564,10.620,1.831
-0.365,0.031,0.651,15.442,8.301,3.357
-0.385,0.026,0.673,17.639,4.822,3.723
-0.388,0.028,0.697,20.813,5.005,3.174
-0.390,0.031,0.732,24.658,5.371,3.052
-0.402,0.019,0.781,28.564,8.545,2.747
-0.405,-0.023,0.863,30.029,11.658,1.404
-0.402,-0.028,0.914,26.489,16.541,-0.549
-0.383,-0.043,0.959,21.240,20.020,-2.197
-0.370,-0.045,1.002,17.029,20.630,-3.296
-0.363,-0.035,1.031,13.428,19.348,-3.479
-0.344,-0.023,1.043,9.460,16.968,-3.418
-0.322,-0.011,1.036,5.859,13.367,-2.502
-0.309,0.013,1.000,3.723,8.972,0.244
-0.322,0.036,0.988,4.456,4.150,2.991
-0.335,0.040,0.998,7.019,0.488,4.761
-0.331,0.031,0.995,9.888,-0.488,6.042
-0.349,0.025,1.000,12.146,-0.122,7.385
-0.360,0.008,1.017,13.306,1.038,8.118
-0.364,-0.008,1.023,13.367,3.418,8.118
-0.363,-0.025,1.027,12.573,5.859,8.240
-0.356,-0.043,1.024,11.169,7.324,8.118
-0.375,-0.035,1.015,9.155,7.996,7.874
-0.375,-0.031,0.999,7.935,7.874,6.897
-0.375,-0.037,0.998,8.240,6.897,5.310
-0.369,-0.042,0.996,8.423,5.737,3.296
-0.358,-0.037,0.984,7.874,5.066,1.709
-0.354,-0.031,0.977,7.324,3.357,0.732
-0.347,-0.026,0.968,7.080,1.404,0.732
-0.339,-0.016,0.961,6.592,-0.061,1.892
-0.348,-0.025,0.952,7.263,-1.404,3.174
-0.358,-0.031,0.963,6.653,-1.404,3.174
-0.351,-0.035,0.960,4.944,0.305,2.686
-0.344,-0.036,0.954,3.357,1.831,2.625
-0.350,-0.033,0.945,1.709,2.075,3.357
-0.353,-0.036,0.928,0.854,2.136,3.723
-0.356,-0.040,0.921,0.671,1.221,3.418
-0.354,-0.041,0.908,1.038,0.610,2.747
-0.349,-0.037,0.901,1.587,0.427,2.319
-0.342,-0.032,0.895,2.319,0.244,1.709
-0.334,-0.024,0.883,3.174,-0.122,0.916
-0.320,-0.021,0.877,4.822,-1.038,0.732
-0.310,-0.026,0.868,6.958,-2.136,1.465
-0.305,-0.036,0.854,7.996,-3.113,3.052
-0.304,-0.045,0.841,7.629,-4.028,4.700
-0.305,-0.045,0.817,6.348,-4.089,6.287
-0.312,-0.046,0.785,5.920,-4.028,8.362
-0.329,-0.038,0.756,5.981,-4.822,10.193
-0.344,-0.041,0.740,6.714,-5.676,11.414
-0.346,-0.057,0.742,8.301,-5.127,11.169
-0.340,-0.070,0.744,9.644,-2.136,10.620
-0.337,-0.080,0.744,11.169,0.610,10.620
-0.334,-0.094,0.745,12.268,2.686,10.437
-0.335,-0.092,0.749,11.780,3.418,9.827
-0.342,-0.085,0.738,10.925,2.686,9.521
-0.352,-0.077,0.717,10.925,1.648,9.827
-0.365,-0.078,0.716,12.573,0.427,10.742
-0.376,-0.089,0.728,15.320,0.610,11.108
-0.376,-0.110,0.757,17.761,2.014,10.437
-0.370,-0.124,0.790,18.127,4.395,9.644
-0.379,-0.122,0.810,15.869,7.385,8.484
-0.378,-0.118,0.822,12.329,9.888,7.690
0.620,-0.696,2.409,-111.572,32.288,-13.184
0.695,-0.771,2.502,-84.351,-4.211,-6.348
0.738,-0.955,2.634,-59.692,-28.748,-4.272
0.785,-1.135,2.784,-50.354,-41.626,-9.705
0.811,-1.308,2.946,-58.411,-51.697,-18.372
0.913,-1.509,2.991,-83.191,-50.903,-31.433
1.101,-1.674,2.982,-122.070,-47.729,-50.110
1.276,-1.652,2.993,-157.593,-66.162,-62.317
1.570,-1.619,2.739,-185.913,-73.547,-68.481
1.835,-1.565,2.439,-204.468,-83.008,-70.984
2.031,-1.452,1.917,-207.581,-98.328,-62.927
2.121,-1.419,1.538,-197.998,-118.896,-52.490
2.164,-1.440,1.230,-179.199,-133.362,-42.480
2.032,-1.484,0.868,-163.818,-150.757,-32.349
1.855,-1.485,0.681,-158.752,-163.025,-26.978
1.698,-1.425,0.474,-164.246,-161.682,-28.564
1.761,-1.639,-0.035,-175.903,-156.128,-31.250
1.572,-1.337,-0.476,-184.082,-156.494,-15.381
1.284,-1.080,-0.827,-182.007,-158.936,-8.423
1.080,-0.965,-1.042,-162.720,-160.095,-13.367
0.954,-0.821,-1.199,-133.972,-155.823,-20.630
0.785,-0.677,-1.197,-99.304,-153.564,-27.222
0.622,-0.578,-1.061,-62.500,-152.710,-33.142
0.548,-0.518,-0.864,-33.020,-148.437,-40.649
0.518,-0.467,-0.659,-13.611,-139.526,-48.584
0.500,-0.417,-0.444,-3.784,-129.822,-54.077
0.499,-0.332,-0.317,-5.066,-119.385,-54.626
0.521,-0.252,-0.260,-13.000,-112.366,-51.208
0.492,-0.183,-0.214,-19.287,-109.619,-44.739
0.446,-0.149,-0.160,-24.475,-107.056,-37.354
0.431,-0.141,-0.156,-29.236,-102.722,-30.945
0.385,-0.094,-0.148,-33.630,-97.717,-24.841
0.324,-0.018,-0.172,-35.889,-92.285,-18.555
0.263,0.043,-0.175,-32.532,-88.074,-14.954
0.225,0.035,-0.110,-24.475,-86.304,-14.709
0.176,0.027,-0.081,-17.822,-82.764,-14.038
0.137,0.039,-0.039,-15.076,-78.064,-12.878
0.116,0.052,-0.029,-14.648,-72.266,-12.634
0.118,0.092,-0.060,-15.076,-68.604,-12.146
0.069,0.135,-0.058,-13.489,-69.702,-10.132
0.036,0.156,-0.037,-9.521,-70.068,-9.644
0.010,0.170,0.002,-4.700,-67.627,-9.827
-0.019,0.181,0.054,0.916,-63.232,-9.583
-0.055,0.176,0.122,6.958,-58.716,-8.606
-0.104,0.151,0.201,11.475,-55.420,-6.897
-0.143,0.122,0.275,12.939,-51.270,-4.822
-0.165,0.093,0.338,11.841,-44.250,-3.296
-0.199,0.069,0.390,10.498,-36.560,-3.052
-0.220,0.062,0.440,7.935,-29.053,-3.845
-0.213,0.063,0.491,5.493,-22.400,-5.371
-0.198,0.066,0.488,3.357,-16.541,-5.371
-0.194,0.084,0.504,3.357,-13.062,-2.441
-0.216,0.100,0.538,4.395,-12.573,0.977
-0.208,0.094,0.577,5.737,-11.108,3.174
-0.197,0.068,0.602,8.667,-9.644,4.883
-0.222,0.057,0.652,12.573,-9.216,7.263
-0.242,0.039,0.708,16.052,-8.240,8.972
-0.236,0.012,0.749,16.663,-6.470,9.155
-0.229,-0.016,0.778,15.137,-5.981,9.888
-0.259,-0.013,0.794,13.977,-7.324,11.902
-0.279,-0.016,0.801,12.695,-8.728,12.146
-0.286,-0.036,0.829,12.329,-9.277,10.010
-0.290,-0.039,0.858,10.986,-8.179,7.385
-0.280,-0.031,0.874,7.996,-4.883,5.066
-0.264,-0.020,0.880,5.066,-1.526,4.333
-0.255,-0.008,0.891,3.906,0.610,4.883
-0.248,-0.007,0.898,5.432,1.831,6.042
-0.250,-0.032,0.934,9.216,1.892,6.958
-0.256,-0.056,0.974,11.719,1.709,7.446
-0.264,-0.062,0.985,10.254,1.953,8.850
-0.277,-0.062,0.995,8.240,1.282,10.925
-0.297,-0.076,1.005,7.385,-0.244,12.634
-0.304,-0.095,1.003,6.287,-1.770,13.550
-0.309,-0.094,0.981,4.822,-3.784,14.160
-0.329,-0.096,0.962,4.822,-6.042,14.465
-0.357,-0.109,0.957,6.775,-7.812,14.160
-0.362,-0.120,0.955,8.362,-7.568,11.780
-0.354,-0.125,0.950,9.033,-6.531,8.789
-0.350,-0.129,0.953,9.949,-5.798,7.263
-0.349,-0.137,0.963,10.437,-5.310,6.287
-0.341,-0.137,0.952,9.399,-3.662,5.249
-0.331,-0.130,0.941,8.118,-2.197,4.395
-0.323,-0.125,0.944,7.019,-1.282,3.479
-0.314,-0.111,0.943,6.348,-0.122,2.808
-0.307,-0.105,0.939,6.042,0.305,2.258
-0.283,-0.088,0.916,5.737,0.122,1.892
-0.309,-0.136,0.962,5.798,-1.831,1.099
-0.301,-0.090,0.945,4.028,-1.526,2.441
-0.282,-0.094,0.918,3.906,-0.854,3.113
-0.290,-0.099,0.964,3.906,-2.258,1.831
-0.292,-0.105,0.977,2.991,-3.113,1.160
-0.274,-0.095,0.949,2.258,-2.075,0.977
-0.264,-0.080,0.930,2.441,-2.441,0.854
-0.268,-0.097,0.909,2.441,-3.479,0.549
-0.257,-0.086,0.915,3.174,-4.639,1.282
-0.263,-0.096,0.911,3.723,-5.615,2.197
-0.269,-0.086,0.903,2.991,-5.615,3.113
-0.272,-0.074,0.882,2.319,-5.188,2.563
-0.280,-0.067,0.868,4.028,-5.310,2.869
-0.302,-0.076,0.877,7.935,-6.653,3.601
-0.320,-0.109,0.913,10.376,-7.874,3.540
-0.331,-0.135,0.940,8.423,-5.981,3.418
-0.332,-0.138,0.933,2.136,-0.916,3.052
-0.321,-0.110,0.929,-3.723,3.845,1.526
-0.309,-0.103,0.883,-6.531,7.080,0.610
-0.302,-0.093,0.897,-4.211,5.798,0.977
-0.317,-0.099,0.918,-1.099,2.197,0.854
-0.306,-0.109,0.919,-0.061,0.977,0.244
-0.303,-0.095,0.917,-0.549,1.465,0.305
-0.299,-0.084,0.911,-1.282,2.258,0.488
-0.287,-0.072,0.897,-1.465,2.441,0.549
-0.283,-0.053,0.910,-1.038,1.770,0.427
-0.289,-0.067,0.891,0.122,1.038,0.366
-0.285,-0.071,0.902,2.625,-0.916,0.732
-0.292,-0.070,0.900,3.967,-1.892,1.221
-0.291,-0.073,0.912,5.127,-1.892,1.709
-0.298,-0.085,0.922,5.493,-0.916,2.014
-0.304,-0.096,0.942,4.150,1.160,1.648
-0.297,-0.097,0.951,2.014,4.028,1.526
0.618,-0.547,2.735,-62.927,-45.898,6.165
0.708,-0.586,2.770,-57.983,-45.654,4.150
0.864,-0.714,2.909,-53.162,-51.208,-2.625
1.073,-0.864,3.043,-54.321,-64.026,-9.888
1.256,-1.042,3.080,-60.303,-80.627,-15.808
1.417,-1.186,3.157,-74.280,-106.567,-27.832
1.733,-1.254,3.012,-98.389,-133.850,-41.565
2.043,-1.264,2.860,-122.009,-183.472,-46.936
2.212,-1.234,2.726,-140.076,-225.098,-47.791
2.343,-1.232,2.594,-151.794,-255.737,-40.894
2.241,-1.159,2.639,-164.429,-250.244,-31.799
2.656,-1.574,2.012,-182.922,-213.928,-33.142
2.638,-1.500,1.435,-191.589,-196.167,-12.390
2.390,-1.379,0.709,-182.678,-186.401,11.780
2.284,-1.483,0.299,-163.879,-195.129,14.893
2.168,-1.540,-0.333,-144.165,-210.388,13.733
1.826,-1.504,-0.690,-130.127,-229.736,12.756
1.498,-1.526,-0.966,-114.990,-236.145,-2.014
1.305,-1.414,-1.051,-107.910,-225.159,-21.667
1.136,-1.186,-1.096,-100.281,-207.947,-35.645
1.037,-0.925,-1.091,-88.379,-187.195,-46.143
1.048,-0.694,-1.062,-76.843,-166.626,-57.007
1.001,-0.508,-0.927,-61.401,-155.640,-62.805
0.960,-0.376,-0.745,-45.166,-150.513,-61.279
0.930,-0.284,-0.612,-35.217,-146.362,-55.115
0.863,-0.213,-0.492,-32.593,-144.653,-44.922
0.801,-0.236,-0.410,-32.043,-143.372,-33.508
0.705,-0.297,-0.434,-37.354,-141.541,-22.705
0.535,-0.291,-0.459,-48.950,-140.015,-12.878
0.416,-0.252,-0.471,-58.716,-131.775,-9.583
0.358,-0.199,-0.492,-60.120,-117.798,-10.864
0.287,-0.127,-0.487,-54.810,-107.056,-11.108
0.200,-0.070,-0.410,-43.640,-101.135,-10.803
0.152,-0.082,-0.279,-30.151,-95.337,-12.939
0.107,-0.061,-0.134,-21.912,-85.022,-16.296
0.096,-0.001,-0.041,-20.691,-70.251,-18.738
0.096,0.054,0.037,-20.081,-57.190,-18.372
0.089,0.062,0.105,-17.822,-49.561,-14.587
0.041,0.068,0.186,-15.259,-45.593,-8.118
-0.013,0.066,0.247,-13.184,-42.542,-2.563
-0.012,0.054,0.249,-11.963,-38.879,0.854
-0.042,0.073,0.218,-8.728,-36.804,5.188
-0.116,0.065,0.221,-2.441,-40.161,9.583
-0.181,0.060,0.252,5.676,-42.236,11.108
-0.223,0.054,0.302,14.832,-42.236,9.705
-0.246,0.032,0.358,22.400,-40.771,6.592
-0.266,0.001,0.438,26.550,-38.879,3.662
-0.275,-0.052,0.519,25.818,-34.607,1.343
-0.276,-0.071,0.571,18.005,-26.428,0.854
-0.258,-0.053,0.577,5.920,-17.029,1.526
-0.246,-0.002,0.569,-4.578,-9.766,2.686
-0.242,0.055,0.570,-8.789,-6.836,3.479
-0.233,0.083,0.585,-6.897,-8.057,4.028
-0.246,0.085,0.627,-0.793,-11.414,5.676
-0.263,0.082,0.668,5.737,-13.611,7.019
-0.265,0.072,0.694,12.024,-13.794,7.812
-0.272,0.042,0.743,18.799,-13.306,7.141
-0.284,0.029,0.780,23.926,-11.230,6.592
-0.296,0.022,0.819,25.574,-8.789,5.676
-0.301,0.010,0.849,24.353,-6.531,3.723
-0.271,-0.022,0.842,20.386,-3.296,2.441
-0.278,-0.006,0.847,15.686,0.122,3.113
-0.290,-0.003,0.844,11.963,3.540,3.723
-0.274,-0.010,0.837,10.254,6.836,4.089
-0.272,-0.016,0.848,11.902,7.446,5.005
-0.275,-0.024,0.880,14.709,7.263,5.371
-0.277,-0.035,0.882,16.785,5.981,5.371
-0.280,-0.047,0.890,18.005,3.052,5.615
-0.315,-0.060,0.898,18.738,0.244,5.188
-0.335,-0.076,0.942,17.944,-0.610,4.211
-0.338,-0.105,0.982,15.442,0.366,3.540
-0.329,-0.105,1.006,10.071,3.296,2.136
-0.318,-0.091,1.017,3.479,5.859,0.916
-0.292,-0.075,1.016,-1.404,7.751,0.793
-0.274,-0.058,0.981,-4.089,8.545,1.892
-0.275,-0.033,0.961,-4.272,6.287,3.418
-0.278,-0.016,0.952,-2.930,3.906,4.272
-0.274,-0.008,0.944,-0.244,2.991,4.456
-0.265,-0.001,0.935,2.747,2.014,4.822
-0.267,0.004,0.932,6.348,0.305,6.165
-0.280,-0.015,0.959,10.742,-2.258,7.202
-0.301,-0.052,1.000,13.611,-3.174,7.324
-0.322,-0.078,1.013,12.939,-1.526,7.019
-0.328,-0.090,1.021,9.460,-0.183,5.981
-0.317,-0.093,1.005,4.761,-0.122,4.883
-0.317,-0.088,0.991,0.610,-1.221,4.089
-0.312,-0.073,0.968,-2.502,-2.258,3.601
-0.314,-0.064,0.937,-3.784,-2.380,3.967
-0.298,-0.051,0.930,-3.113,-2.747,4.456
-0.323,-0.054,0.919,-1.343,-3.662,3.967
-0.295,-0.026,0.878,-0.366,-0.061,5.127
-0.293,-0.031,0.866,2.075,0.427,5.493
-0.318,-0.034,0.899,4.333,-1.770,5.005
-0.330,-0.059,0.928,5.920,-3.296,3.784
-0.327,-0.082,0.944,6.165,-3.418,2.319
-0.322,-0.103,0.950,4.944,-2.625,1.343
-0.321,-0.094,0.940,2.075,-1.587,1.526
-0.324,-0.075,0.921,-0.854,-0.671,1.892
-0.325,-0.070,0.920,-1.953,-0.183,1.831
-0.314,-0.072,0.916,-2.014,0.671,1.221
-0.309,-0.069,0.896,-2.808,1.221,0.671
-0.308,-0.056,0.885,-3.052,0.793,0.854
-0.305,-0.049,0.868,-1.648,0.488,1.465
-0.302,-0.050,0.871,0.549,0.061,1.953
-0.298,-0.054,0.883,2.197,-0.244,2.258
-0.299,-0.052,0.879,1.770,0.610,2.380
-0.291,-0.043,0.874,1.038,1.282,2.747
-0.293,-0.037,0.867,1.343,1.038,3.723
-0.302,-0.038,0.863,1.953,0.549,4.700
-0.316,-0.050,0.860,2.930,0.549,5.554
-0.335,-0.050,0.861,2.869,1.770,5.615
-0.331,-0.069,0.871,2.319,3.235,3.845
-0.329,-0.072,0.879,1.892,5.310,2.075
-0.320,-0.067,0.877,1.587,6.409,1.160
-0.316,-0.068,0.886,2.136,5.981,0.671
-0.312,-0.068,0.891,2.747,4.883,0.183
-0.309,-0.065,0.895,3.296,3.906,-0.122
-0.306,-0.065,0.903,3.357,3.418,-0.244
-0.300,-0.068,0.912,3.662,3.967,-0.488
0.431,-0.799,2.829,-67.322,30.701,-30.334
0.583,-0.919,3.057,-75.439,28.198,-41.138
0.783,-1.039,3.154,-92.041,22.705,-53.711
1.040,-1.094,3.100,-111.572,9.949,-63.721
1.348,-1.074,3.068,-131.836,-12.512,-70.435
1.692,-1.099,2.934,-150.757,-34.851,-73.242
1.976,-1.057,2.679,-166.809,-52.673,-66.223
2.186,-1.052,2.416,-181.519,-70.618,-52.856
2.276,-1.066,2.094,-192.322,-88.196,-36.499
2.280,-1.108,1.817,-194.214,-107.605,-16.663
2.247,-1.206,1.570,-189.514,-123.108,-1.709
2.191,-1.272,1.319,-185.852,-140.198,3.967
2.063,-1.280,1.161,-180.420,-157.593,4.089
2.070,-1.368,0.951,-173.767,-166.626,-2.014
2.033,-1.362,0.751,-169.800,-174.377,-9.827
1.961,-1.298,0.502,-167.053,-181.458,-15.076
1.983,-1.204,0.189,-166.687,-185.242,-19.043
1.913,-1.073,-0.018,-170.593,-192.261,-17.029
1.992,-1.194,-0.540,-171.631,-209.106,1.648
1.583,-0.992,-0.814,-154.907,-234.558,39.978
1.295,-0.974,-1.094,-128.723,-234.863,60.303
1.003,-0.941,-1.279,-100.037,-228.943,60.486
0.730,-0.884,-1.312,-69.763,-221.558,47.363
0.546,-0.818,-1.305,-39.551,-205.078,29.297
0.384,-0.725,-1.162,-12.268,-187.500,10.620
0.310,-0.605,-0.942,6.348,-170.715,-9.705
0.330,-0.475,-0.753,13.184,-150.757,-27.344
0.354,-0.352,-0.566,16.174,-135.376,-37.354
0.361,-0.249,-0.365,17.151,-126.831,-42.053
0.380,-0.162,-0.219,11.475,-122.437,-43.457
0.402,-0.084,-0.167,1.709,-118.469,-39.917
0.380,-0.030,-0.151,-6.958,-117.371,-31.616
0.334,0.021,-0.172,-13.672,-115.906,-21.240
0.293,0.034,-0.226,-17.517,-113.464,-12.573
0.204,0.058,-0.262,-17.029,-111.450,-4.761
0.105,0.071,-0.282,-14.648,-107.605,1.282
0.034,0.059,-0.315,-11.475,-100.891,3.296
-0.023,0.055,-0.318,-7.202,-92.651,2.319
-0.072,0.052,-0.244,-0.549,-86.853,0.610
-0.111,0.037,-0.164,6.531,-81.543,-1.953
-0.146,0.031,-0.077,10.437,-77.026,-3.418
-0.185,0.051,-0.014,11.292,-70.923,-5.127
-0.204,0.074,0.036,11.536,-64.941,-7.812
-0.198,0.078,0.091,13.123,-58.533,-10.315
-0.200,0.075,0.127,15.747,-51.208,-10.315
-0.237,0.089,0.170,18.494,-41.870,-7.263
-0.260,0.088,0.208,19.958,-30.457,-4.333
-0.265,0.054,0.219,19.836,-21.667,-2.075
-0.290,0.031,0.259,20.081,-17.700,1.282
-0.337,-0.004,0.318,21.667,-14.099,3.113
-0.356,-0.006,0.406,23.315,-9.155,2.075
-0.367,-0.001,0.447,25.024,-5.066,-0.793
-0.367,-0.005,0.509,26.428,-3.845,-3.235
-0.371,-0.009,0.586,27.283,-3.723,-5.676
-0.355,0.004,0.618,26.306,-1.038,-7.996
-0.327,0.025,0.646,24.963,2.197,-10.193
-0.316,0.047,0.676,24.719,3.967,-11.169
-0.290,0.042,0.712,25.696,5.859,-10.803
-0.268,0.026,0.741,25.757,7.141,-9.277
-0.274,0.010,0.754,24.231,6.531,-6.653
-0.283,0.009,0.746,21.362,5.249,-3.174
-0.291,-0.013,0.739,19.653,3.418,0.305
-0.323,-0.032,0.740,19.287,1.221,2.991
-0.352,-0.049,0.772,18.677,0.671,2.991
-0.354,-0.073,0.801,17.334,3.845,1.404
-0.349,-0.074,0.840,14.282,8.362,-0.916
-0.341,-0.067,0.868,10.681,12.390,-2.441
-0.325,-0.061,0.900,7.629,15.442,-3.784
-0.306,-0.049,0.926,5.615,18.616,-4.700
-0.280,-0.032,0.933,4.395,21.790,-4.211
-0.269,-0.023,0.957,5.798,22.888,-2.808
-0.266,-0.021,0.987,9.094,21.606,-1.099
-0.266,-0.025,1.021,11.780,19.897,1.221
-0.271,-0.037,1.046,13.062,17.395,3.479
-0.282,-0.055,1.062,13.794,15.015,5.005
-0.284,-0.067,1.065,13.550,13.733,5.798
-0.288,-0.057,1.072,12.512,13.062,5.554
-0.273,-0.059,1.070,12.024,12.756,5.005
-0.276,-0.068,1.081,12.512,12.085,3.662
-0.279,-0.069,1.097,10.742,12.573,2.197
-0.263,-0.072,1.083,8.789,13.184,1.587
-0.251,-0.084,1.091,7.874,11.658,1.343
-0.247,-0.075,1.093,6.348,9.399,1.099
-0.226,-0.063,1.062,3.540,9.949,1.648
-0.219,-0.052,1.047,2.014,9.460,2.075
-0.225,-0.044,1.046,2.747,7.080,3.174
-0.234,-0.046,1.049,5.371,4.639,4.578
-0.242,-0.061,1.048,7.263,3.052,5.005
-0.241,-0.062,1.051,6.653,2.136,4.517
-0.239,-0.055,1.037,5.371,2.014,4.333
-0.238,-0.060,1.036,5.432,1.465,4.700
-0.245,-0.074,1.043,5.981,0.427,5.371
-0.248,-0.078,1.033,5.066,0.244,6.348
-0.246,-0.088,1.039,3.174,-0.183,6.470
-0.244,-0.093,1.029,1.404,0.183,5.981
-0.241,-0.093,1.013,-0.183,0.244,6.165
-0.240,-0.086,1.002,-1.709,-0.366,6.104
-0.228,-0.075,0.979,-2.808,-0.244,5.981
-0.223,-0.066,0.959,-3.052,-0.977,5.981
-0.225,-0.060,0.951,-2.869,-1.892,6.165
-0.216,-0.059,0.921,-1.953,-2.136,6.531
-0.217,-0.057,0.899,0.183,-3.723,7.690
-0.230,-0.073,0.896,2.625,-5.615,8.484
-0.234,-0.088,0.883,3.479,-5.798,8.667
-0.238,-0.097,0.877,2.930,-5.859,8.118
-0.238,-0.105,0.871,1.892,-5.798,8.118
-0.234,-0.106,0.849,0.244,-5.371,8.545
-0.225,-0.100,0.821,-1.831,-5.188,8.667
-0.216,-0.106,0.790,-2.563,-5.615,9.216
-0.209,-0.103,0.759,-2.991,-5.798,10.498
-0.215,-0.090,0.726,-3.540,-5.493,11.108
-0.222,-0.076,0.706,-3.174,-5.737,11.353
-0.228,-0.071,0.679,-1.648,-5.310,12.024
-0.238,-0.069,0.667,0.977,-5.188,13.000
-0.248,-0.076,0.664,4.211,-6.165,13.794
-0.256,-0.086,0.664,7.080,-7.324,15.076
-0.259,-0.099,0.675,9.521,-7.446,16.357
-0.243,-0.119,0.693,12.146,-6.165,15.991
-0.221,-0.109,0.717,14.221,-4.211,14.526
-0.590,-0.322,1.809,97.107,6.958,0.427
-0.541,-0.387,1.977,116.577,8.118,0.122
-0.525,-0.523,2.153,130.188,7.568,-3.296
-0.581,-0.649,2.347,131.836,12.939,-1.282
-0.663,-0.690,2.467,116.333,27.954,12.268
-0.731,-0.641,2.468,83.557,47.424,35.034
-0.820,-0.514,2.411,39.856,67.322,59.937
-0.951,-0.290,2.263,-5.676,83.801,78.979
-1.053,-0.022,2.172,-41.931,91.736,90.271
-1.077,0.214,2.173,-62.195,90.027,93.567
-1.099,0.372,2.245,-70.740,86.243,86.853
-1.166,0.505,2.223,-73.730,89.111,72.327
-1.295,0.611,2.139,-73.303,96.985,54.565
-1.370,0.691,2.013,-68.909,103.271,37.781
-1.406,0.776,1.903,-59.753,105.469,24.292
-1.437,0.845,1.854,-46.570,106.018,13.855
-1.424,0.842,1.845,-35.217,105.774,5.310
-1.352,0.817,1.827,-33.447,108.521,-0.305
-1.336,0.798,1.753,-43.701,118.835,-4.028
-1.364,0.731,1.598,-65.430,134.888,-8.911
-1.399,0.604,1.445,-90.759,149.536,-15.564
-1.372,0.506,1.292,-109.375,157.837,-21.118
-1.327,0.467,1.214,-111.328,159.546,-26.367
-1.277,0.377,1.180,-96.497,158.936,-32.104
-1.193,0.269,1.177,-74.036,159.973,-34.973
-1.091,0.236,1.172,-47.913,162.659,-34.241
-1.031,0.269,1.122,-17.944,168.640,-31.006
-0.971,0.359,0.996,11.047,180.908,-25.452
-0.910,0.472,0.843,33.752,195.923,-18.005
-0.882,0.608,0.651,45.410,211.487,-9.766
-0.884,0.764,0.450,44.495,228.943,-4.211
-0.920,0.890,0.165,31.372,248.718,-1.221
-0.966,0.940,-0.145,7.202,263.794,0.183
-0.987,0.892,-0.433,-21.790,263.733,-3.357
-0.988,0.788,-0.584,-47.546,246.704,-11.047
-0.979,0.624,-0.576,-59.021,215.332,-21.423
-0.927,0.410,-0.432,-49.072,177.429,-28.687
-0.789,0.223,-0.227,-21.912,139.709,-29.236
-0.618,0.095,-0.003,12.268,106.873,-25.513
-0.506,0.071,0.229,44.189,83.984,-18.005
-0.394,0.139,0.396,68.726,72.937,-8.118
-0.318,0.204,0.489,82.886,75.256,0.244
-0.295,0.232,0.490,85.876,88.745,7.263
-0.323,0.254,0.407,77.209,107.178,12.512
-0.360,0.263,0.309,61.035,124.268,17.090
-0.386,0.247,0.233,45.410,135.986,20.935
-0.406,0.239,0.162,33.508,141.846,23.682
-0.415,0.207,0.096,27.832,142.456,24.231
-0.421,0.184,0.062,30.334,137.146,22.034
-0.423,0.164,0.070,42.175,126.282,16.785
-0.416,0.154,0.106,61.523,112.549,10.620
-0.380,0.133,0.152,81.421,97.229,6.348
-0.318,0.124,0.217,92.834,82.397,5.798
-0.252,0.147,0.285,90.393,71.655,9.460
-0.183,0.177,0.329,76.538,67.200,16.907
-0.118,0.220,0.345,56.396,66.711,24.353
-0.061,0.250,0.354,34.790,68.176,28.564
-0.027,0.263,0.343,16.357,70.862,29.236
0.006,0.250,0.295,5.371,73.669,27.222
0.038,0.247,0.232,2.686,73.853,22.949
0.057,0.249,0.203,8.362,69.275,17.822
0.073,0.254,0.193,18.005,62.012,13.123
0.084,0.259,0.185,26.550,53.955,8.789
0.102,0.232,0.201,29.297,45.715,5.310
0.124,0.199,0.239,24.536,37.354,4.639
0.152,0.191,0.286,14.587,29.785,6.531
0.187,0.226,0.350,4.395,23.376,9.033
0.223,0.246,0.411,-3.113,18.555,10.132
0.245,0.252,0.478,-8.301,16.357,9.705
0.269,0.242,0.524,-11.230,15.808,7.996
0.278,0.234,0.539,-12.207,16.296,6.409
0.291,0.233,0.540,-11.108,17.029,5.493
0.298,0.228,0.523,-8.179,17.456,3.906
0.305,0.213,0.512,-3.967,15.869,1.892
0.307,0.205,0.517,2.258,12.329,0.000
0.304,0.214,0.534,9.766,7.629,-0.977
0.309,0.224,0.560,16.113,2.197,-2.197
0.312,0.225,0.597,19.592,-2.502,-3.174
0.317,0.227,0.630,18.494,-5.188,-3.540
0.325,0.215,0.670,15.259,-7.263,-3.540
0.340,0.196,0.716,10.193,-8.118,-3.357
0.354,0.187,0.765,5.371,-7.202,-2.686
0.368,0.175,0.810,2.563,-6.470,-2.502
0.380,0.149,0.848,1.526,-4.883,-2.563
0.380,0.119,0.868,1.953,-1.892,-2.258
0.369,0.106,0.856,4.700,2.625,-1.709
0.368,0.105,0.833,9.949,6.042,-0.916
0.358,0.109,0.815,17.578,6.409,-0.549
0.343,0.135,0.796,24.414,4.700,-0.916
0.335,0.158,0.790,28.870,0.610,-1.892
0.333,0.166,0.818,29.968,-3.906,-3.296
0.333,0.170,0.858,26.855,-7.446,-3.967
0.338,0.175,0.897,19.958,-10.132,-4.089
0.345,0.177,0.920,9.766,-11.353,-3.662
0.361,0.172,0.929,0.183,-11.475,-3.723
0.371,0.153,0.940,-5.188,-10.132,-4.517
0.372,0.134,0.936,-6.592,-7.446,-4.761
0.367,0.117,0.928,-3.845,-5.432,-4.883
0.358,0.111,0.929,2.014,-4.578,-5.371
0.365,0.102,0.955,12.024,-4.517,-6.836
0.362,0.096,0.975,23.132,-4.211,-7.324
0.368,0.116,0.997,31.616,-3.174,-6.531
0.373,0.134,1.015,36.194,-1.587,-6.042
0.369,0.148,1.028,35.583,1.160,-5.493
0.358,0.149,1.022,29.297,4.089,-4.761
0.359,0.142,1.003,19.165,5.859,-4.089
0.361,0.135,0.984,7.874,6.409,-3.235
0.354,0.124,0.966,-0.793,5.981,-2.502
0.350,0.110,0.956,-5.737,5.310,-2.441
0.344,0.101,0.943,-7.324,4.333,-2.441
0.345,0.102,0.927,-6.042,2.747,-2.441
0.357,0.110,0.926,-2.930,0.916,-3.113
0.365,0.112,0.924,1.465,-0.610,-4.211
0.359,0.116,0.918,5.432,-1.709,-4.639
0.364,0.113,0.919,6.836,-2.014,-5.005
0.370,0.104,0.939,6.653,-1.953,-5.310
0.374,0.099,0.954,5.920,-0.854,-4.883
0.377,0.095,0.958,4.822,1.282,-4.150
0.375,0.095,0.940,3.113,3.540,-3.418
-0.655,-0.204,1.775,-12.390,59.631,39.307
-0.682,-0.192,1.794,-28.137,67.017,42.725
-0.723,-0.142,1.798,-40.833,77.271,46.082
-0.768,-0.050,1.796,-49.194,88.562,49.255
-0.831,0.096,1.777,-53.406,100.586,50.781
-0.885,0.194,1.776,-53.894,107.666,49.500
-0.907,0.226,1.794,-50.171,110.535,47.241
-0.915,0.273,1.836,-43.213,113.403,45.410
-0.934,0.312,1.846,-30.334,116.943,41.870
-0.973,0.354,1.827,-13.367,120.544,36.926
-1.014,0.439,1.826,1.587,125.000,33.569
-1.073,0.574,1.816,12.146,130.432,31.738
-1.114,0.695,1.800,15.076,135.559,30.640
-1.142,0.782,1.798,6.836,141.052,29.785
-1.166,0.888,1.810,-9.949,148.193,28.564
-1.170,0.932,1.805,-26.917,155.579,23.010
-1.151,0.868,1.775,-40.649,163.574,13.733
-1.166,0.774,1.734,-53.406,174.316,3.723
-1.178,0.683,1.659,-64.697,186.707,-3.967
-1.146,0.588,1.582,-70.557,196.167,-9.583
-1.089,0.540,1.530,-67.993,200.623,-15.930
-1.048,0.498,1.502,-55.176,203.430,-23.010
-1.021,0.473,1.472,-36.438,207.520,-28.931
-1.030,0.462,1.429,-17.334,216.614,-32.227
-1.059,0.480,1.349,-3.540,230.774,-32.898
-1.100,0.526,1.270,3.540,244.080,-32.227
-1.130,0.557,1.208,6.409,251.709,-32.166
-1.128,0.591,1.143,5.798,256.897,-31.250
-1.129,0.658,1.057,2.625,263.367,-29.358
-1.115,0.705,0.973,-1.221,270.752,-29.236
-1.073,0.713,0.872,-4.089,274.414,-30.090
-1.038,0.714,0.792,-7.996,273.926,-31.189
-1.009,0.690,0.703,-11.597,271.240,-33.203
-0.962,0.614,0.601,-12.207,267.029,-35.217
-0.898,0.503,0.507,-10.864,261.353,-34.973
-0.838,0.390,0.421,-11.047,254.272,-32.715
-0.801,0.288,0.351,-12.451,246.399,-28.687
-0.748,0.189,0.303,-12.329,238.159,-23.315
-0.683,0.110,0.268,-6.714,230.408,-16.479
-0.621,0.078,0.226,5.066,223.999,-8.728
-0.573,0.105,0.172,24.597,218.079,-1.831
-0.541,0.163,0.102,50.598,212.280,3.967
-0.520,0.238,0.043,78.125,205.688,9.094
-0.499,0.312,-0.039,100.342,197.021,13.306
-0.480,0.401,-0.104,112.061,185.852,16.602
-0.435,0.476,-0.167,113.403,171.753,19.958
-0.392,0.534,-0.210,104.553,154.907,23.743
-0.360,0.566,-0.223,85.815,136.902,26.794
-0.333,0.589,-0.200,61.279,118.408,28.625
-0.294,0.591,-0.170,37.109,98.877,28.015
-0.234,0.578,-0.098,17.822,78.674,25.635
-0.156,0.553,0.002,6.531,59.692,21.301
-0.097,0.515,0.090,5.981,44.189,14.648
-0.045,0.488,0.160,14.343,33.691,7.141
0.011,0.459,0.216,28.992,26.367,0.000
0.034,0.426,0.266,45.227,21.118,-5.432
0.046,0.416,0.310,58.533,18.005,-8.789
0.081,0.425,0.343,65.918,15.747,-9.521
0.130,0.442,0.362,66.528,13.977,-8.179
0.165,0.465,0.366,60.974,13.245,-6.714
0.192,0.485,0.369,51.941,14.038,-6.287
0.206,0.474,0.365,42.786,14.893,-8.118
0.228,0.460,0.360,33.081,14.221,-11.108
0.245,0.439,0.359,22.949,13.062,-14.160
0.256,0.405,0.363,13.062,12.451,-16.602
0.289,0.381,0.372,4.700,11.780,-18.311
0.323,0.354,0.400,-0.732,10.986,-20.081
0.342,0.317,0.432,-3.418,11.047,-21.973
0.339,0.268,0.460,-5.371,12.268,-23.376
0.352,0.221,0.458,-8.606,14.038,-22.949
0.366,0.179,0.427,-13.123,15.137,-20.569
0.380,0.155,0.398,-17.517,14.343,-17.395
0.392,0.168,0.368,-18.616,10.986,-15.259
0.415,0.161,0.361,-13.367,5.127,-15.503
0.438,0.156,0.373,-4.761,-0.854,-16.785
0.457,0.140,0.388,2.991,-4.883,-18.738
0.475,0.123,0.423,7.324,-8.850,-20.447
0.486,0.104,0.465,7.935,-12.390,-20.569
0.518,0.096,0.508,5.737,-13.855,-19.348
0.552,0.069,0.539,3.113,-12.634,-17.578
0.567,0.059,0.542,0.549,-9.705,-14.954
0.576,0.064,0.522,-1.465,-6.897,-11.353
0.574,0.062,0.505,-1.465,-6.165,-9.033
0.573,0.070,0.505,1.404,-7.385,-7.263
0.574,0.079,0.523,6.592,-10.315,-6.775
0.566,0.085,0.545,13.672,-14.465,-6.775
0.560,0.096,0.578,19.714,-18.372,-5.615
0.559,0.114,0.622,23.499,-20.630,-4.578
0.559,0.143,0.683,23.926,-21.118,-3.784
0.560,0.171,0.740,22.644,-21.484,-2.441
0.558,0.201,0.784,19.714,-21.729,0.061
0.561,0.214,0.815,16.724,-21.057,1.892
0.564,0.224,0.838,14.587,-19.226,2.502
0.561,0.234,0.856,13.733,-16.968,2.136
0.554,0.226,0.864,14.709,-14.343,0.549
0.549,0.214,0.858,17.273,-11.230,-0.854
0.546,0.221,0.846,18.799,-7.996,-1.587
0.536,0.235,0.832,19.287,-6.226,-1.953
0.535,0.245,0.823,18.066,-5.615,-2.747
0.531,0.251,0.823,15.259,-5.371,-4.150
0.527,0.250,0.826,11.292,-5.249,-5.310
0.521,0.245,0.829,7.263,-5.127,-6.287
0.519,0.230,0.833,2.563,-4.883,-6.348
0.530,0.205,0.856,-1.587,-4.761,-5.432
0.541,0.194,0.879,-4.944,-3.723,-3.906
0.543,0.193,0.886,-8.118,-2.075,-1.709
0.557,0.201,0.881,-10.803,0.549,0.000
0.567,0.208,0.856,-11.963,2.625,0.488
0.568,0.220,0.820,-10.925,4.150,-0.366
0.567,0.223,0.790,-7.935,4.822,-2.258
0.567,0.216,0.772,-5.127,4.883,-3.784
0.563,0.200,0.753,-2.441,4.150,-4.822
0.558,0.184,0.740,-0.183,2.319,-5.981
0.553,0.176,0.744,2.014,-0.610,-6.714
0.546,0.167,0.759,3.052,-3.662,-6.714
0.543,0.148,0.788,2.686,-5.798,-5.920
0.550,0.137,0.806,0.427,-6.409,-4.517
0.552,0.147,0.826,-1.404,-6.226,-2.991
0.565,0.160,0.843,-1.160,-5.920,-1.648
-0.750,-0.361,1.697,35.828,10.864,35.278
-0.751,-0.440,1.855,44.373,17.578,45.227
-0.771,-0.501,1.984,45.410,28.748,54.565
-0.823,-0.554,2.033,39.917,44.250,62.622
-0.886,-0.549,2.043,26.001,61.890,71.228
-0.940,-0.589,2.061,10.132,80.322,78.125
-1.000,-0.611,2.062,-5.127,99.792,83.618
-1.062,-0.561,2.044,-16.724,118.225,87.280
-1.120,-0.473,2.027,-20.142,132.324,88.379
-1.149,-0.334,2.026,-14.587,139.404,88.196
-1.152,-0.222,2.047,-7.751,141.174,85.510
-1.175,-0.067,2.109,-6.470,143.127,82.581
-1.205,0.130,2.195,-10.498,146.912,81.909
-1.187,0.329,2.267,-20.386,155.090,83.679
-1.180,0.520,2.322,-39.551,166.687,85.632
-1.155,0.656,2.347,-66.040,180.786,85.205
-1.117,0.719,2.310,-89.417,194.275,80.505
-1.101,0.796,2.245,-109.558,207.153,75.256
-1.073,0.864,2.147,-124.695,219.299,70.618
-1.077,0.956,2.059,-134.033,229.004,63.660
-1.098,1.050,1.950,-138.916,237.488,53.711
-1.138,1.178,1.764,-135.071,247.070,42.908
-1.169,1.359,1.521,-120.544,254.883,29.175
-1.195,1.495,1.368,-92.773,253.540,8.484
-1.203,1.546,1.291,-54.077,244.263,-14.954
-1.164,1.558,1.262,-11.536,234.131,-36.133
-1.139,1.547,1.254,26.123,229.614,-50.598
-1.139,1.557,1.237,55.786,230.042,-57.800
-1.141,1.574,1.200,75.134,234.558,-59.631
-1.159,1.603,1.126,83.191,242.859,-58.655
-1.169,1.624,1.015,80.994,251.099,-56.335
-1.186,1.591,0.922,71.045,255.920,-53.650
-1.182,1.536,0.839,56.030,259.216,-51.575
-1.146,1.457,0.764,43.518,260.681,-51.392
-1.090,1.372,0.656,37.476,263.428,-50.781
-1.058,1.295,0.498,35.583,268.860,-48.767
-1.041,1.218,0.281,34.485,272.522,-47.852
-1.054,1.190,-0.037,33.447,271.240,-48.950
-1.008,1.158,-0.338,35.645,263.977,-53.833
-0.945,1.091,-0.587,43.274,247.864,-61.523
-0.848,0.987,-0.699,55.786,222.595,-71.289
-0.738,0.849,-0.705,71.899,193.604,-80.872
-0.633,0.677,-0.671,85.266,168.274,-87.402
-0.556,0.507,-0.635,89.783,149.475,-89.539
-0.477,0.359,-0.599,83.984,134.094,-85.876
-0.410,0.225,-0.562,72.021,117.371,-79.102
-0.350,0.136,-0.524,57.434,100.220,-68.848
-0.282,0.074,-0.500,42.786,85.388,-55.603
-0.216,0.030,-0.476,28.503,73.792,-42.114
-0.162,-0.000,-0.423,15.686,63.293,-30.090
-0.108,-0.029,-0.358,7.751,54.199,-20.081
-0.062,-0.036,-0.290,5.371,46.875,-11.902
-0.021,-0.037,-0.220,8.911,41.931,-5.920
0.010,-0.039,-0.170,16.113,39.185,-2.563
0.045,-0.043,-0.135,23.682,37.109,-1.038
0.083,-0.053,-0.113,31.494,33.875,-0.793
0.109,-0.049,-0.078,37.903,29.236,-0.671
0.128,-0.039,-0.025,43.213,23.132,-1.343
0.141,-0.034,0.028,46.631,17.029,-1.892
0.167,-0.032,0.069,47.241,11.108,-1.404
0.184,-0.027,0.108,44.312,5.493,0.305
0.196,-0.015,0.156,38.147,0.610,3.296
0.213,0.002,0.217,29.114,-2.991,7.935
0.245,0.010,0.277,18.677,-3.723,13.428
0.288,0.020,0.319,6.165,-2.747,18.799
0.312,0.047,0.350,-6.714,-1.709,23.437
0.329,0.082,0.369,-17.029,-1.770,26.550
0.349,0.109,0.387,-22.095,-3.479,26.367
0.365,0.132,0.415,-21.423,-7.996,22.888
0.382,0.150,0.477,-14.893,-14.526,17.273
0.411,0.140,0.555,-3.357,-19.897,9.949
0.427,0.117,0.619,10.498,-21.973,2.991
0.455,0.096,0.658,23.376,-22.034,-1.831
0.458,0.080,0.689,33.386,-20.569,-3.723
0.472,0.072,0.680,38.513,-16.602,-2.869
0.483,0.074,0.656,39.490,-12.695,-0.549
0.493,0.081,0.628,37.292,-9.583,1.587
0.506,0.072,0.620,34.241,-7.996,3.601
0.510,0.063,0.609,31.555,-6.836,6.348
0.505,0.064,0.605,28.870,-6.348,8.850
0.499,0.076,0.613,27.100,-6.592,10.864
0.494,0.087,0.616,28.137,-7.568,11.841
0.499,0.104,0.621,31.555,-8.606,12.817
0.503,0.128,0.632,36.560,-10.071,12.634
0.509,0.152,0.659,42.175,-11.597,10.620
0.526,0.161,0.699,47.546,-12.390,7.507
0.537,0.148,0.723,50.964,-12.512,4.456
0.532,0.136,0.737,50.232,-12.573,2.319
0.527,0.117,0.747,45.837,-12.451,1.465
0.523,0.114,0.752,40.283,-13.733,1.587
0.521,0.102,0.757,35.828,-15.442,2.380
0.520,0.087,0.773,33.264,-16.663,2.808
0.526,0.072,0.798,32.104,-18.555,2.808
0.538,0.056,0.837,34.363,-21.301,2.319
0.548,0.041,0.871,39.612,-23.926,1.831
0.550,0.039,0.896,45.593,-25.818,1.099
0.536,0.061,0.911,50.537,-27.649,0.061
0.537,0.075,0.930,51.575,-28.137,0.000
0.534,0.099,0.952,46.448,-25.635,1.465
0.540,0.106,0.969,35.156,-21.179,3.601
0.540,0.111,0.981,20.996,-16.357,6.165
0.532,0.119,0.990,7.446,-12.085,8.484
0.532,0.114,0.992,-3.174,-8.301,10.315
0.534,0.104,0.991,-10.132,-5.554,11.169
0.530,0.088,0.986,-13.672,-4.150,10.925
0.536,0.072,0.985,-13.916,-3.540,10.315
0.538,0.064,0.982,-10.986,-3.357,9.827
0.541,0.061,0.981,-6.409,-2.991,8.911
0.545,0.065,0.975,-2.258,-1.892,8.850
0.542,0.093,0.962,-0.122,-0.366,9.460
0.541,0.125,0.954,-0.244,0.916,10.132
0.540,0.146,0.944,-2.991,2.930,10.803
0.533,0.158,0.922,-7.751,5.249,11.169
0.523,0.157,0.901,-12.573,6.653,10.681
0.515,0.154,0.881,-15.869,7.385,9.583
0.508,0.145,0.865,-16.907,7.202,8.423
0.511,0.134,0.861,-15.808,6.226,7.080
0.512,0.122,0.852,-12.268,4.700,6.042
0.515,0.115,0.838,-7.629,3.113,5.127
-0.725,-0.296,1.924,42.114,23.376,49.438
-0.755,-0.460,2.078,45.837,38.513,60.669
-0.814,-0.576,2.138,41.443,55.969,74.036
-0.920,-0.632,2.165,24.536,81.238,92.529
-1.060,-0.658,2.090,-5.188,112.915,113.037
-1.179,-0.650,1.961,-43.152,144.287,132.812
-1.266,-0.625,1.810,-80.811,167.786,149.780
-1.288,-0.603,1.705,-108.643,180.664,159.546
-1.271,-0.593,1.649,-119.507,185.059,161.255
-1.226,-0.591,1.625,-113.098,183.411,157.898
-1.143,-0.545,1.623,-96.741,179.016,154.480
-1.045,-0.501,1.620,-78.857,175.964,151.978
-0.955,-0.457,1.640,-69.336,176.697,149.597
-0.877,-0.392,1.712,-68.420,181.152,150.513
-0.873,-0.275,1.791,-72.327,188.965,152.893
-0.896,-0.173,1.805,-80.261,200.012,156.006
-0.908,-0.005,1.781,-93.201,214.050,160.950
-0.953,0.234,1.755,-110.107,224.304,164.246
-0.989,0.513,1.772,-126.587,228.333,164.124
-1.005,0.820,1.798,-143.188,231.079,162.109
-1.012,1.118,1.783,-156.006,231.384,154.846
-1.037,1.414,1.679,-159.058,228.760,140.686
-1.058,1.696,1.531,-144.409,223.999,120.239
-1.089,1.932,1.402,-110.840,214.600,94.788
-1.094,2.139,1.286,-66.162,200.623,65.979
-1.066,2.308,1.260,-18.555,185.059,35.889
-0.992,2.358,1.320,24.414,172.485,8.179
-0.942,2.337,1.365,55.115,167.847,-15.259
-0.952,2.278,1.360,69.092,172.302,-34.485
-0.964,2.192,1.333,68.237,183.533,-47.241
-0.989,2.111,1.252,55.054,197.571,-52.734
-1.017,2.038,1.149,32.410,211.121,-54.382
-1.038,1.968,1.040,6.226,221.741,-55.908
-1.063,1.897,0.936,-18.066,228.577,-59.631
-1.088,1.806,0.836,-36.621,230.469,-66.406
-1.094,1.688,0.731,-47.729,228.333,-75.317
-1.092,1.567,0.593,-53.101,226.135,-84.351
-1.105,1.474,0.433,-52.429,225.037,-92.529
-1.110,1.390,0.263,-46.326,223.145,-100.220
-1.089,1.281,0.076,-36.621,218.567,-108.276
-1.033,1.156,-0.093,-25.330,210.693,-116.821
-0.996,1.020,-0.200,-11.353,195.251,-125.305
-0.926,0.869,-0.256,9.827,172.913,-132.690
-0.818,0.721,-0.269,39.490,148.560,-137.878
-0.725,0.606,-0.239,72.449,125.916,-140.686
-0.671,0.485,-0.173,103.882,104.980,-142.395
-0.578,0.346,-0.091,127.563,89.844,-141.907
-0.483,0.216,-0.062,137.512,84.106,-134.949
-0.418,0.105,-0.062,134.033,83.557,-122.620
-0.371,0.036,-0.056,118.225,84.290,-108.276
-0.342,0.000,-0.063,94.055,86.060,-92.346
-0.328,-0.010,-0.096,67.871,89.294,-75.745
-0.299,-0.036,-0.155,43.823,91.980,-60.608
-0.297,-0.045,-0.204,22.888,92.041,-48.157
-0.294,-0.055,-0.241,6.042,89.783,-38.086
-0.258,-0.067,-0.329,-5.249,87.524,-29.968
-0.235,-0.082,-0.403,-14.465,83.923,-24.231
-0.189,-0.104,-0.472,-20.325,74.707,-21.362
-0.142,-0.158,-0.503,-22.888,62.500,-18.799
-0.105,-0.222,-0.517,-21.545,49.683,-15.930
-0.088,-0.297,-0.500,-16.418,36.255,-14.099
-0.080,-0.361,-0.447,-7.996,21.973,-10.437
-0.047,-0.391,-0.372,3.052,7.507,-4.272
0.003,-0.372,-0.280,17.822,-5.493,3.174
0.068,-0.321,-0.168,34.729,-15.503,10.681
0.127,-0.258,-0.045,52.490,-22.644,16.357
0.170,-0.190,0.093,66.040,-27.405,19.775
0.226,-0.114,0.235,71.777,-30.090,21.912
0.288,-0.043,0.392,67.932,-30.334,23.499
0.338,0.013,0.529,55.420,-25.818,23.437
0.376,0.047,0.626,36.072,-18.555,22.095
0.410,0.065,0.654,14.221,-10.864,21.057
0.442,0.063,0.656,-6.042,-4.456,19.653
0.449,0.050,0.635,-20.996,0.854,18.127
0.439,0.047,0.608,-28.381,4.700,17.639
0.427,0.046,0.586,-27.588,5.371,17.273
0.424,0.060,0.558,-21.484,5.066,16.968
0.432,0.087,0.522,-11.902,3.418,17.334
0.448,0.132,0.508,-0.427,-1.038,16.846
0.468,0.195,0.523,12.329,-5.859,16.113
0.506,0.252,0.576,24.109,-11.414,14.648
0.543,0.289,0.655,31.128,-15.808,13.000
0.579,0.306,0.731,32.043,-16.602,11.658
0.595,0.302,0.779,28.259,-14.587,10.437
0.604,0.303,0.797,21.729,-11.536,10.193
0.602,0.300,0.793,14.160,-8.911,10.437
0.591,0.290,0.771,7.751,-7.568,10.620
0.583,0.281,0.757,4.456,-8.362,10.132
0.564,0.280,0.766,4.700,-10.132,9.338
0.567,0.267,0.794,8.728,-12.146,7.751
0.572,0.249,0.815,15.442,-13.062,5.798
0.574,0.250,0.814,23.193,-13.184,4.333
0.576,0.251,0.814,31.311,-12.939,3.662
0.575,0.254,0.816,38.086,-12.695,3.052
0.573,0.262,0.833,41.504,-11.902,2.563
0.560,0.265,0.848,41.443,-10.742,2.563
0.560,0.281,0.857,37.964,-9.399,4.089
0.567,0.290,0.871,32.166,-7.263,6.042
0.560,0.310,0.876,25.879,-5.066,7.385
0.555,0.315,0.867,19.775,-4.639,7.935
0.551,0.314,0.859,13.428,-7.568,7.324
0.533,0.301,0.849,7.629,-13.306,4.211
0.529,0.277,0.855,4.761,-18.433,0.061
0.541,0.250,0.885,6.104,-21.057,-2.441
0.548,0.232,0.910,9.888,-23.315,-4.333
0.548,0.216,0.939,15.564,-24.780,-6.531
0.560,0.197,0.974,21.729,-24.353,-8.362
0.555,0.188,1.012,26.917,-21.118,-9.155
0.557,0.179,1.032,28.748,-15.015,-8.179
0.564,0.168,1.026,25.085,-7.690,-5.249
0.563,0.169,1.001,14.832,-0.854,-1.709
0.554,0.176,0.963,2.014,5.798,2.686
0.543,0.179,0.912,-9.155,10.925,6.653
0.525,0.182,0.860,-18.127,14.160,9.399
0.509,0.188,0.808,-23.010,14.404,10.925
0.505,0.184,0.773,-23.376,11.902,10.925
0.497,0.186,0.762,-20.203,8.057,10.132
0.495,0.186,0.764,-14.099,3.662,8.972
0.495,0.190,0.773,-7.629,-0.122,7.812
-0.648,-0.496,2.197,90.149,-4.761,13.733
-0.766,-0.763,2.467,110.413,4.578,21.545
-0.865,-1.008,2.558,118.347,28.015,40.710
-0.946,-1.102,2.541,110.413,60.059,73.059
-1.053,-0.989,2.433,83.252,90.515,113.892
-1.107,-0.794,2.235,44.006,117.859,150.085
-1.111,-0.575,2.002,-2.869,140.442,174.927
-1.085,-0.415,1.782,-49.072,152.283,182.922
-1.041,-0.390,1.661,-84.595,152.649,174.927
-0.968,-0.392,1.678,-98.389,144.775,160.950
-0.911,-0.329,1.756,-87.952,135.132,146.484
-0.884,-0.214,1.877,-61.890,127.930,132.629
-0.879,-0.119,2.114,-29.297,118.652,122.498
-0.879,0.027,2.495,-2.991,111.389,118.408
-0.874,0.290,2.884,10.925,118.286,119.690
-0.854,0.579,3.180,12.939,139.832,124.451
-0.893,0.857,3.229,-2.258,173.340,127.380
-0.974,1.075,3.134,-32.349,213.684,125.061
-1.077,1.225,2.935,-67.749,250.977,119.751
-1.197,1.395,2.651,-98.633,277.222,110.779
-1.308,1.571,2.326,-120.850,291.016,97.473
-1.404,1.727,2.037,-129.883,297.363,82.092
-1.444,1.857,1.682,-127.991,298.889,64.026
-1.475,2.006,1.339,-116.211,297.607,43.762
-1.469,2.148,0.967,-90.210,292.664,19.958
-1.463,2.232,0.632,-53.162,281.555,-7.812
-1.430,2.254,0.351,-12.329,265.381,-35.522
-1.358,2.176,0.215,28.015,244.446,-59.204
-1.256,2.034,0.229,60.059,223.022,-75.195
-1.148,1.889,0.287,74.585,204.346,-83.008
-1.052,1.783,0.327,71.045,191.284,-85.266
-0.959,1.676,0.330,61.035,184.082,-84.900
-0.911,1.579,0.291,51.270,181.396,-83.923
-0.871,1.478,0.240,44.739,178.650,-83.801
-0.828,1.358,0.199,44.800,171.997,-85.693
-0.777,1.213,0.144,50.354,162.048,-88.196
-0.724,1.035,0.072,59.448,153.748,-89.661
-0.650,0.839,-0.003,71.533,148.926,-88.684
-0.606,0.597,-0.085,84.534,147.461,-85.754
-0.594,0.364,-0.177,94.543,148.560,-79.529
-0.562,0.150,-0.279,103.821,149.414,-69.153
-0.515,-0.016,-0.336,117.737,147.827,-54.321
-0.463,-0.085,-0.367,133.301,143.127,-35.034
-0.416,-0.058,-0.375,143.616,134.338,-14.648
-0.386,0.007,-0.373,143.738,124.023,2.747
-0.356,0.076,-0.360,134.155,113.403,17.151
-0.320,0.130,-0.339,119.263,100.708,27.954
-0.271,0.161,-0.278,102.966,87.097,34.668
-0.237,0.178,-0.211,86.609,74.585,37.476
-0.213,0.193,-0.158,71.533,65.186,38.452
-0.163,0.189,-0.122,60.364,59.448,38.330
-0.109,0.163,-0.117,53.955,56.763,37.964
-0.073,0.147,-0.119,50.476,55.298,38.025
-0.037,0.143,-0.115,48.645,53.284,37.048
0.010,0.125,-0.081,50.415,48.218,35.095
0.050,0.110,-0.027,53.772,41.199,32.166
0.102,0.091,0.043,56.763,35.706,29.236
0.145,0.071,0.122,58.167,31.677,26.245
0.165,0.067,0.184,56.274,29.480,24.597
0.184,0.080,0.205,51.575,29.541,25.330
0.227,0.095,0.206,45.532,29.236,27.100
0.271,0.111,0.229,39.185,28.748,29.053
0.279,0.142,0.250,32.104,28.687,31.372
0.295,0.193,0.268,25.146,27.710,34.546
0.322,0.248,0.286,18.860,25.391,37.048
0.377,0.276,0.297,15.076,21.301,34.851
0.405,0.289,0.324,14.343,16.296,28.137
0.426,0.287,0.349,17.456,11.719,19.470
0.451,0.265,0.365,23.437,6.470,9.705
0.478,0.227,0.391,31.433,0.610,-0.488
0.498,0.179,0.421,38.818,-4.211,-9.399
0.506,0.121,0.468,44.556,-8.118,-17.090
0.525,0.071,0.543,47.974,-10.742,-20.569
0.538,0.044,0.609,48.828,-10.559,-19.165
0.548,0.018,0.645,45.410,-7.935,-15.442
0.565,0.000,0.661,36.194,-4.517,-10.315
0.568,-0.011,0.671,22.766,0.000,-5.249
0.571,-0.029,0.657,10.498,4.883,-1.038
0.569,-0.032,0.636,0.671,8.667,3.357
0.553,-0.019,0.604,-3.784,11.047,7.080
0.543,-0.005,0.569,-4.150,11.047,8.423
0.534,0.017,0.551,-1.770,8.057,8.240
0.530,0.047,0.577,2.258,3.235,7.385
0.542,0.073,0.596,6.958,-0.610,6.226
0.557,0.099,0.627,11.902,-2.686,4.517
0.575,0.107,0.679,17.578,-4.211,2.808
0.574,0.100,0.708,21.912,-3.601,2.258
0.581,0.100,0.714,22.156,-2.441,2.808
0.584,0.094,0.708,19.470,-2.075,3.601
0.584,0.103,0.708,15.015,-2.686,4.395
0.598,0.103,0.716,10.803,-4.150,4.639
0.604,0.105,0.735,7.324,-6.348,4.211
0.609,0.098,0.774,4.272,-9.705,1.892
0.596,0.078,0.829,1.587,-13.367,-1.892
0.598,0.064,0.865,-1.221,-14.954,-4.028
0.609,0.055,0.896,-2.686,-13.428,-5.005
0.609,0.057,0.913,-4.211,-10.010,-5.188
0.603,0.067,0.919,-6.042,-7.080,-4.456
0.604,0.056,0.921,-7.324,-4.395,-4.089
0.596,0.055,0.910,-8.606,-1.648,-3.479
0.603,0.060,0.892,-9.521,1.160,-1.526
0.595,0.071,0.874,-11.475,4.578,0.000
0.599,0.084,0.843,-14.221,5.981,1.465
0.594,0.090,0.827,-15.930,5.981,1.526
0.578,0.089,0.806,-17.212,6.409,0.549
0.577,0.079,0.788,-17.578,5.493,-0.549
0.586,0.065,0.789,-17.578,3.235,-1.038
0.584,0.066,0.797,-17.456,1.099,-1.282
0.594,0.069,0.809,-16.602,-0.244,-1.587
0.601,0.068,0.814,-14.832,-0.916,-2.075
0.600,0.066,0.820,-13.794,-1.038,-3.174
0.603,0.048,0.826,-12.329,-0.671,-4.272
0.604,0.041,0.831,-9.827,0.305,-4.700
0.591,0.044,0.835,-6.775,1.831,-4.639
0.594,0.037,0.832,-3.540,2.380,-4.028
0.586,0.041,0.819,-1.953,2.625,-2.869
0.576,0.062,0.788,-0.977,3.418,-1.282
0.572,0.079,0.770,-0.305,2.686,-0.183
0.567,0.091,0.757,-0.122,0.671,-0.305
-0.555,-0.524,1.979,77.454,12.085,10.925
-0.570,-0.763,2.297,82.336,11.353,15.564
-0.627,-1.004,2.486,79.041,16.602,30.029
-0.684,-1.178,2.640,59.814,33.875,57.678
-0.773,-1.214,2.640,23.621,64.636,95.520
-0.856,-1.138,2.548,-27.954,105.164,133.484
-0.959,-0.984,2.424,-84.351,140.869,167.847
-1.051,-0.786,2.301,-133.118,165.344,193.970
-1.070,-0.550,2.227,-165.161,182.861,210.449
-1.065,-0.297,2.128,-180.725,195.862,217.773
