aX,aY,aZ,gX,gY,gZ
0.175,0.946,-3.123,-95.947,1.343,45.593
0.158,1.060,-3.345,-122.986,-20.874,37.537
0.123,1.160,-3.410,-143.677,-58.411,22.888
0.119,1.237,-3.335,-158.630,-103.027,6.287
0.134,1.283,-3.155,-171.631,-146.057,-7.996
0.163,1.272,-2.949,-186.584,-180.237,-17.700
0.200,1.257,-2.730,-207.336,-203.491,-23.315
0.239,1.277,-2.504,-228.943,-220.276,-24.719
0.276,1.321,-2.274,-245.850,-233.337,-25.024
0.301,1.363,-2.038,-259.399,-246.582,-28.259
0.319,1.392,-1.801,-269.165,-261.902,-37.231
0.317,1.421,-1.549,-275.452,-279.175,-52.612
0.271,1.413,-1.286,-280.579,-297.485,-72.388
0.225,1.391,-1.005,-283.142,-312.866,-92.651
0.152,1.348,-0.760,-284.119,-324.341,-108.887
0.055,1.267,-0.559,-286.743,-334.595,-120.300
-0.026,1.171,-0.358,-288.330,-345.520,-129.333
-0.097,1.090,-0.149,-284.790,-355.530,-138.550
-0.184,1.022,0.047,-274.902,-362.915,-149.780
-0.275,0.949,0.237,-262.268,-367.798,-162.048
-0.378,0.875,0.396,-248.352,-368.958,-176.819
-0.498,0.773,0.519,-233.154,-368.347,-194.397
-0.620,0.591,0.612,-215.881,-370.178,-212.341
-0.769,0.402,0.682,-193.787,-376.465,-228.943
-0.909,0.209,0.805,-165.955,-385.132,-242.371
-1.008,0.022,0.931,-134.705,-390.198,-252.808
-1.125,-0.123,1.120,-105.103,-386.963,-258.179
-1.165,-0.270,1.252,-83.679,-372.620,-257.874
-1.152,-0.397,1.436,-73.181,-345.581,-248.657
-1.182,-0.586,1.549,-71.350,-301.025,-237.610
-1.197,-0.774,1.569,-77.271,-243.164,-220.581
-1.234,-0.898,1.538,-89.966,-185.181,-196.167
-1.288,-0.984,1.484,-103.638,-134.277,-167.786
-1.303,-1.016,1.424,-111.328,-96.191,-138.733
-1.266,-0.999,1.399,-107.849,-76.904,-112.000
-1.160,-0.915,1.389,-92.529,-75.256,-91.125
-1.037,-0.804,1.420,-67.871,-82.703,-79.529
-0.941,-0.726,1.445,-40.039,-91.370,-76.477
-0.842,-0.668,1.493,-16.296,-96.802,-79.285
-0.763,-0.699,1.531,0.427,-95.398,-83.313
-0.731,-0.731,1.570,10.498,-84.106,-82.581
-0.713,-0.770,1.591,15.503,-59.998,-74.707
-0.679,-0.805,1.542,13.245,-28.809,-61.096
-0.660,-0.801,1.484,7.446,3.540,-44.983
-0.643,-0.814,1.371,1.404,34.607,-31.250
-0.621,-0.819,1.228,-2.502,60.059,-20.203
-0.589,-0.803,1.103,-0.549,73.914,-12.939
-0.555,-0.791,0.989,7.141,75.806,-9.399
-0.510,-0.781,0.891,18.677,69.092,-9.521
-0.463,-0.794,0.805,32.349,58.105,-12.451
-0.433,-0.824,0.733,45.105,46.631,-15.625
-0.394,-0.843,0.697,53.223,38.208,-17.273
-0.350,-0.848,0.663,55.420,34.851,-15.015
-0.290,-0.844,0.620,53.223,36.377,-9.644
-0.227,-0.815,0.593,47.119,41.870,-3.540
-0.167,-0.799,0.550,38.818,49.500,2.991
-0.109,-0.786,0.513,29.053,56.213,8.911
-0.064,-0.795,0.472,20.020,60.425,13.611
-0.009,-0.786,0.434,13.123,61.646,16.541
0.039,-0.763,0.418,9.949,58.899,17.273
0.073,-0.745,0.419,9.949,52.917,15.259
0.097,-0.739,0.427,10.986,47.058,11.414
0.120,-0.740,0.427,11.230,42.725,7.507
0.133,-0.732,0.446,10.498,39.307,4.761
0.164,-0.729,0.469,9.338,37.964,1.953
0.181,-0.726,0.491,7.690,39.795,-0.427
0.184,-0.736,0.498,3.723,43.823,-1.892
0.175,-0.749,0.519,-1.709,48.889,-2.319
0.158,-0.786,0.535,-6.775,54.749,-1.282
0.136,-0.833,0.530,-11.597,59.998,0.488
0.126,-0.868,0.526,-15.076,63.599,3.601
0.128,-0.890,0.518,-15.808,63.232,5.859
0.147,-0.883,0.507,-13.306,59.082,6.714
0.173,-0.869,0.503,-8.118,52.979,6.348
0.185,-0.856,0.490,-2.686,46.936,4.395
0.203,-0.847,0.481,2.258,41.321,1.038
0.209,-0.845,0.438,6.897,36.133,-2.686
0.183,-0.849,0.392,9.338,28.015,-5.493
0.127,-0.838,0.352,9.583,17.090,-7.263
0.098,-0.838,0.363,9.277,9.338,-9.155
0.107,-0.841,0.394,7.080,7.446,-10.620
0.131,-0.849,0.441,3.479,9.888,-10.498
0.153,-0.860,0.476,-1.221,14.465,-8.362
0.157,-0.871,0.491,-7.202,19.592,-4.761
0.160,-0.869,0.503,-13.245,24.597,0.488
0.161,-0.858,0.501,-17.822,28.931,4.822
0.166,-0.843,0.490,-20.935,31.250,8.240
0.175,-0.828,0.475,-22.888,30.457,9.521
0.179,-0.825,0.495,-21.851,26.367,8.484
0.166,-0.829,0.521,-17.212,18.250,5.432
0.189,-0.847,0.542,-10.559,9.827,1.038
0.193,-0.853,0.542,-2.563,0.427,-3.174
0.203,-0.863,0.562,5.127,-5.981,-6.409
0.190,-0.874,0.587,10.559,-9.155,-8.667
0.190,-0.889,0.587,12.756,-9.033,-9.155
0.159,-0.907,0.573,10.559,-6.775,-7.446
0.151,-0.913,0.546,5.920,-1.465,-4.028
0.141,-0.897,0.522,0.366,3.906,0.549
0.136,-0.874,0.508,-4.700,7.690,4.761
0.138,-0.863,0.501,-7.935,9.827,6.775
0.150,-0.857,0.495,-9.399,10.559,7.263
0.162,-0.848,0.499,-9.644,10.925,7.019
0.171,-0.851,0.500,-9.460,11.108,6.226
0.178,-0.852,0.509,-8.911,11.108,5.676
0.182,-0.848,0.517,-8.179,10.986,6.165
0.198,-0.852,0.519,-7.874,10.925,5.554
0.206,-0.876,0.513,-6.958,8.423,4.883
0.216,-0.877,0.528,-5.066,5.798,4.822
0.225,-0.876,0.539,-2.930,4.639,4.578
0.240,-0.871,0.542,-1.099,4.395,3.723
0.255,-0.865,0.544,0.366,5.310,3.052
0.263,-0.854,0.564,1.343,6.042,1.953
0.263,-0.875,0.563,1.892,5.981,1.099
0.262,-0.884,0.562,1.648,6.714,0.916
0.252,-0.878,0.564,0.671,7.935,1.953
0.246,-0.867,0.551,-0.488,8.301,2.441
0.250,-0.854,0.551,-0.061,8.179,2.991
0.251,-0.839,0.559,0.916,7.263,2.380
0.256,-0.823,0.567,2.502,5.737,1.526
0.884,1.073,-2.118,-78.613,-12.146,-5.920
0.907,1.267,-2.264,-94.238,-2.991,-17.212
0.816,1.378,-2.549,-110.168,19.043,-27.527
0.708,1.509,-2.849,-137.390,40.405,-34.729
0.596,1.660,-3.077,-169.495,45.959,-40.100
0.453,1.786,-3.189,-202.454,35.278,-44.922
0.334,1.859,-3.206,-236.450,12.939,-52.551
0.233,1.941,-3.127,-267.883,-18.372,-56.824
0.135,1.966,-2.959,-294.739,-56.396,-57.068
0.087,1.952,-2.747,-316.406,-99.487,-57.495
0.042,1.919,-2.461,-330.994,-149.170,-58.105
0.007,1.802,-2.154,-339.417,-203.552,-64.636
-0.006,1.716,-1.604,-341.858,-266.296,-80.566
0.023,1.583,-1.012,-329.163,-322.144,-99.915
0.050,1.460,-0.429,-309.082,-358.398,-119.934
0.096,1.312,0.074,-288.330,-371.948,-139.648
0.076,1.062,0.424,-271.118,-362.854,-156.372
0.036,0.794,0.681,-264.099,-341.919,-168.640
-0.083,0.491,0.851,-263.306,-315.857,-176.270
-0.168,0.155,0.961,-262.573,-287.964,-177.185
-0.201,-0.071,1.050,-257.874,-261.963,-172.302
-0.263,-0.195,1.026,-246.155,-229.675,-155.579
-0.353,-0.289,0.947,-242.249,-198.486,-136.108
-0.351,-0.370,1.004,-244.995,-182.922,-127.197
-0.345,-0.454,1.063,-231.628,-173.828,-126.404
-0.395,-0.540,1.066,-207.397,-168.945,-127.502
-0.367,-0.592,1.102,-184.265,-167.480,-127.502
-0.377,-0.580,1.129,-163.391,-157.166,-122.131
-0.434,-0.649,1.085,-151.733,-139.832,-116.272
-0.426,-0.628,1.062,-148.071,-121.399,-109.497
-0.381,-0.484,1.042,-145.874,-102.112,-97.473
-0.332,-0.346,0.977,-146.179,-89.478,-85.632
-0.270,-0.249,0.905,-146.423,-83.252,-80.261
-0.267,-0.217,0.883,-143.372,-86.792,-79.041
-0.223,-0.153,0.987,-133.789,-96.741,-81.482
-0.243,-0.161,1.051,-119.507,-101.929,-85.754
-0.287,-0.266,1.137,-113.220,-104.858,-93.750
-0.320,-0.368,1.254,-110.046,-103.516,-101.074
-0.394,-0.520,1.330,-108.582,-97.046,-102.905
-0.435,-0.683,1.417,-111.145,-86.182,-100.159
-0.437,-0.753,1.534,-111.633,-72.693,-90.210
-0.409,-0.800,1.591,-105.164,-57.068,-77.637
-0.310,-0.763,1.630,-93.018,-40.527,-66.528
-0.229,-0.707,1.579,-78.796,-22.949,-57.861
-0.168,-0.662,1.483,-66.162,-8.057,-55.054
-0.078,-0.581,1.384,-52.734,4.517,-54.993
-0.039,-0.522,1.234,-40.955,15.076,-55.237
-0.010,-0.503,1.118,-35.217,19.287,-57.312
0.041,-0.480,1.036,-33.936,21.545,-60.303
0.085,-0.472,0.970,-36.438,23.437,-61.462
0.150,-0.460,0.936,-40.710,25.757,-64.758
0.182,-0.469,0.905,-43.335,28.870,-69.275
0.202,-0.525,0.899,-44.373,31.433,-73.059
0.235,-0.590,0.929,-41.260,33.630,-75.439
0.201,-0.679,0.931,-33.081,35.217,-73.059
0.193,-0.718,0.929,-25.940,37.292,-67.200
0.234,-0.714,0.898,-20.081,40.588,-59.998
0.189,-0.728,0.833,-17.517,42.847,-53.772
0.209,-0.751,0.766,-17.944,42.908,-51.941
0.222,-0.747,0.716,-18.066,39.978,-48.950
0.215,-0.733,0.691,-21.484,37.048,-45.044
0.267,-0.692,0.730,-27.161,35.339,-43.335
0.305,-0.675,0.732,-30.396,37.720,-42.725
0.293,-0.685,0.704,-36.621,42.542,-43.457
0.343,-0.669,0.706,-45.288,48.462,-44.922
0.347,-0.670,0.680,-50.842,54.382,-44.006
0.341,-0.691,0.657,-53.162,55.054,-44.617
0.345,-0.682,0.636,-50.720,51.941,-45.654
0.269,-0.741,0.615,-46.448,45.532,-46.631
0.222,-0.828,0.662,-40.527,33.447,-47.668
0.147,-0.846,0.654,-30.151,22.339,-45.227
-0.047,-0.891,0.591,-15.564,10.071,-44.067
0.073,-0.882,0.685,-4.395,-3.174,-47.607
0.181,-0.815,0.726,-7.507,2.319,-43.030
0.235,-0.789,0.729,-15.381,19.958,-33.813
0.236,-0.775,0.743,-31.006,37.109,-24.292
0.278,-0.698,0.708,-46.143,52.246,-13.611
0.305,-0.629,0.655,-54.382,60.913,-8.728
0.296,-0.645,0.634,-61.035,60.120,-12.451
0.297,-0.684,0.665,-61.829,52.673,-16.724
0.286,-0.753,0.666,-56.030,40.771,-18.677
0.309,-0.763,0.704,-40.466,16.357,-19.714
0.277,-0.749,0.730,-17.212,-10.803,-21.667
0.260,-0.795,0.834,-1.099,-25.879,-25.940
0.248,-0.799,0.834,2.136,-34.180,-26.917
0.228,-0.845,0.878,-0.977,-26.855,-22.827
0.172,-0.841,0.914,-5.798,-12.512,-15.686
0.149,-0.808,0.838,-10.864,-0.732,-9.583
0.162,-0.758,0.740,-10.315,4.333,-6.104
0.203,-0.706,0.694,-6.836,1.465,-3.906
0.248,-0.664,0.684,-4.211,-2.563,-2.747
0.269,-0.657,0.678,-2.686,-4.944,-2.625
0.255,-0.673,0.675,-3.906,-4.578,-1.770
0.281,-0.674,0.662,-6.531,-3.235,0.244
0.277,-0.650,0.669,-7.019,-3.113,1.953
0.253,-0.667,0.681,-6.592,-2.747,0.732
0.256,-0.695,0.698,-7.690,-2.197,-0.549
0.255,-0.688,0.700,-7.935,-1.282,0.427
0.243,-0.696,0.698,-7.690,-1.221,0.977
0.239,-0.699,0.713,-7.812,-3.052,1.465
0.245,-0.703,0.740,-7.446,-4.822,1.892
0.263,-0.704,0.758,-5.676,-6.104,2.075
0.255,-0.689,0.746,-2.808,-6.287,2.625
0.247,-0.675,0.722,-1.343,-6.592,3.235
0.258,-0.647,0.695,-0.427,-7.629,2.991
0.257,-0.631,0.677,0.732,-8.667,2.136
0.245,-0.656,0.674,0.793,-9.277,0.549
0.237,-0.683,0.676,0.977,-10.132,-0.366
0.223,-0.700,0.683,0.732,-9.583,0.061
0.207,-0.720,0.703,-0.732,-9.583,0.549
0.217,-0.730,0.732,-1.038,-10.254,1.038
0.220,-0.718,0.751,0.488,-10.193,1.831
0.223,-0.713,0.744,1.404,-8.850,2.808
0.240,-0.698,0.730,2.380,-7.751,3.540
0.265,-0.660,0.700,4.517,-6.470,4.822
0.267,-0.649,0.673,5.310,-5.676,4.578
0.267,-0.673,0.683,4.395,-6.287,2.686
0.278,-0.677,0.706,4.944,-7.629,1.587
0.277,-0.664,0.706,7.385,-8.606,0.977
0.615,0.852,-2.400,-56.580,-71.533,-12.451
0.635,0.961,-2.561,-79.773,-80.200,-14.160
0.618,1.095,-2.713,-107.422,-85.632,-13.428
0.570,1.242,-2.856,-139.099,-89.355,-11.841
0.523,1.391,-2.981,-172.485,-94.849,-10.681
0.481,1.598,-3.056,-204.468,-106.567,-10.437
0.437,1.807,-3.058,-236.084,-124.756,-14.038
0.398,1.989,-2.942,-267.883,-148.376,-22.095
0.315,2.083,-2.762,-296.875,-177.856,-32.654
0.204,2.153,-2.509,-319.458,-206.604,-47.363
0.098,2.108,-2.273,-335.266,-232.239,-64.697
-0.012,2.096,-1.999,-345.581,-253.784,-76.904
-0.112,2.062,-1.767,-357.117,-274.292,-83.130
-0.155,2.047,-1.492,-372.070,-294.067,-85.632
-0.179,2.036,-1.189,-386.169,-312.561,-88.623
-0.226,2.024,-0.886,-396.912,-329.590,-93.445
-0.267,1.978,-0.575,-400.146,-348.389,-102.783
-0.379,1.788,-0.281,-389.160,-369.080,-120.667
-0.464,1.563,0.051,-363.586,-391.174,-143.127
-0.586,1.311,0.390,-328.796,-410.583,-165.405
-0.658,1.060,0.701,-297.119,-418.091,-182.861
-0.697,0.798,1.008,-273.315,-411.621,-192.749
-0.733,0.542,1.332,-258.972,-391.235,-195.251
-0.676,0.354,1.673,-253.418,-356.995,-190.857
-0.662,0.213,1.908,-252.258,-305.420,-179.626
-0.646,0.075,2.001,-257.019,-245.544,-163.879
-0.674,-0.095,2.097,-265.686,-192.139,-151.550
-0.817,-0.341,2.225,-271.790,-151.245,-145.996
-0.906,-0.628,2.413,-267.212,-125.732,-143.555
-0.852,-0.773,2.573,-239.990,-110.107,-133.911
-0.733,-0.731,2.622,-193.542,-98.999,-117.310
-0.551,-0.481,2.542,-135.864,-88.318,-105.713
-0.382,-0.262,2.405,-82.947,-71.838,-105.530
-0.247,-0.101,2.184,-48.401,-49.316,-109.253
-0.167,0.078,1.923,-36.316,-19.836,-105.713
-0.130,0.266,1.620,-45.715,16.785,-98.267
-0.165,0.307,1.328,-69.214,46.387,-91.736
-0.229,0.221,1.164,-96.313,56.824,-89.111
-0.295,0.104,1.108,-114.746,44.800,-90.393
-0.308,-0.002,1.166,-118.347,18.311,-91.736
-0.295,-0.122,1.269,-106.445,-8.179,-94.238
-0.318,-0.267,1.401,-85.388,-26.733,-100.281
-0.404,-0.470,1.516,-61.157,-33.997,-102.051
-0.445,-0.637,1.578,-43.823,-30.273,-94.482
-0.396,-0.644,1.571,-36.621,-16.418,-80.383
-0.307,-0.595,1.458,-33.325,2.502,-66.589
-0.191,-0.493,1.293,-32.104,20.752,-54.932
-0.124,-0.405,1.065,-32.288,33.142,-46.021
-0.082,-0.367,0.922,-32.349,34.546,-40.771
-0.034,-0.365,0.828,-31.494,25.757,-40.283
-0.006,-0.347,0.802,-28.259,12.146,-39.490
0.055,-0.357,0.811,-28.442,-0.977,-37.964
0.180,-0.297,0.854,-33.813,-6.042,-36.499
0.229,-0.333,0.875,-40.771,-2.380,-37.537
0.248,-0.450,0.911,-48.340,3.784,-39.246
0.297,-0.463,0.942,-48.645,9.338,-37.964
0.286,-0.497,0.929,-41.626,14.404,-35.889
0.287,-0.573,0.911,-35.767,17.334,-34.302
0.313,-0.556,0.877,-29.358,18.005,-28.687
0.327,-0.500,0.844,-20.386,15.991,-24.414
0.337,-0.493,0.829,-14.709,12.268,-25.208
0.348,-0.515,0.821,-15.625,9.338,-26.184
0.352,-0.557,0.838,-19.348,8.606,-26.367
0.388,-0.554,0.871,-23.987,11.292,-25.818
0.417,-0.521,0.875,-26.428,15.198,-23.865
0.412,-0.532,0.849,-28.503,19.836,-23.743
0.440,-0.486,0.813,-32.776,23.804,-22.095
0.422,-0.457,0.758,-34.058,24.597,-22.217
0.381,-0.541,0.759,-33.386,19.226,-25.574
0.371,-0.577,0.810,-28.687,11.169,-24.780
0.340,-0.579,0.857,-23.010,5.859,-22.888
0.331,-0.633,0.904,-18.188,3.357,-22.156
0.376,-0.598,0.915,-15.137,5.188,-18.433
0.393,-0.534,0.868,-12.756,10.803,-14.587
0.371,-0.528,0.795,-12.573,15.015,-14.160
0.365,-0.509,0.739,-15.381,14.709,-13.733
0.369,-0.500,0.708,-17.334,10.254,-13.123
0.384,-0.503,0.708,-17.456,2.563,-13.123
0.407,-0.487,0.741,-15.564,-3.296,-13.367
0.379,-0.487,0.774,-14.648,-6.104,-13.306
0.343,-0.511,0.823,-16.113,-6.653,-12.695
0.309,-0.561,0.925,-19.836,-5.310,-11.353
0.293,-0.564,0.943,-20.691,-1.465,-9.460
0.268,-0.559,0.998,-15.259,1.770,-8.545
0.262,-0.556,0.950,-11.108,5.737,-7.629
0.262,-0.543,0.899,-7.507,8.789,-6.226
0.272,-0.526,0.847,-3.662,8.850,-4.333
0.264,-0.519,0.841,-1.404,6.226,-2.563
0.290,-0.505,0.833,-2.502,4.333,-0.549
0.312,-0.463,0.790,-3.967,3.479,1.526
0.326,-0.453,0.777,-1.343,-0.427,2.136
0.344,-0.451,0.762,-0.427,-5.981,1.099
0.379,-0.439,0.775,-0.122,-9.766,-0.122
0.384,-0.453,0.837,0.916,-9.399,-1.587
0.372,-0.486,0.894,-0.732,-5.310,-2.502
0.376,-0.502,0.906,-3.418,-0.671,-2.563
0.377,-0.503,0.907,-3.296,3.357,-2.502
0.375,-0.519,0.881,0.000,5.005,-3.479
0.362,-0.516,0.850,4.456,4.700,-4.272
0.337,-0.523,0.835,6.470,3.784,-3.845
0.318,-0.525,0.820,5.188,2.258,-2.808
0.310,-0.526,0.808,4.456,-0.610,-1.770
0.303,-0.517,0.794,5.127,-4.028,-0.793
0.320,-0.493,0.796,4.761,-6.348,0.488
0.334,-0.484,0.807,4.272,-7.019,0.305
0.354,-0.498,0.802,4.761,-6.348,-1.099
0.354,-0.495,0.787,5.310,-4.700,-1.099
0.354,-0.484,0.776,3.723,-2.258,-0.977
0.359,-0.479,0.775,1.892,-0.488,-0.916
0.368,-0.475,0.769,1.587,0.732,-1.038
0.356,-0.482,0.761,1.160,1.282,-1.526
0.343,-0.491,0.768,-0.488,0.854,-1.648
0.346,-0.494,0.797,-1.221,-0.732,-1.343
0.333,-0.502,0.815,-0.366,-1.892,-1.648
0.328,-0.500,0.832,0.183,-2.380,-2.014
0.330,-0.500,0.854,1.160,-2.686,-2.380
0.328,-0.519,0.864,1.953,-1.892,-2.563
0.326,-0.517,0.851,2.808,0.061,-1.404
0.344,-0.492,0.836,3.601,1.648,0.305
0.500,0.426,-2.850,-66.223,-44.373,0.488
0.490,0.499,-2.948,-82.947,-66.650,-0.244
0.520,0.700,-2.998,-103.516,-82.947,0.061
0.533,0.867,-2.999,-130.859,-90.454,-3.174
0.540,0.962,-3.028,-163.391,-91.370,-6.287
0.501,1.134,-2.995,-200.317,-92.712,-6.165
0.503,1.338,-2.929,-237.671,-99.121,-5.676
0.459,1.502,-2.791,-274.231,-110.046,-8.789
0.387,1.552,-2.654,-301.636,-126.160,-18.188
0.293,1.637,-2.407,-320.251,-149.658,-25.452
0.239,1.724,-2.137,-335.449,-174.011,-31.189
0.167,1.786,-1.841,-351.501,-192.932,-35.583
0.083,1.809,-1.570,-373.108,-204.956,-39.001
0.010,1.829,-1.288,-398.437,-214.600,-39.124
-0.054,1.810,-1.034,-424.500,-227.051,-39.001
-0.138,1.795,-0.722,-444.641,-247.559,-42.786
-0.288,1.714,-0.351,-453.491,-276.184,-52.002
-0.345,1.550,0.173,-444.824,-316.895,-66.345
-0.417,1.316,0.715,-408.813,-360.474,-85.449
-0.407,1.133,1.260,-362.366,-382.690,-104.187
-0.369,0.891,1.719,-323.914,-375.366,-121.948
-0.369,0.610,1.995,-300.598,-334.229,-131.836
-0.339,0.374,2.218,-293.335,-273.682,-129.883
-0.349,0.235,2.285,-292.297,-208.740,-119.568
-0.414,0.120,2.253,-291.626,-154.358,-110.168
-0.438,-0.025,2.294,-285.828,-122.742,-104.126
-0.511,-0.179,2.387,-271.362,-108.398,-101.929
-0.524,-0.372,2.493,-247.070,-103.577,-98.999
-0.421,-0.465,2.588,-211.121,-101.685,-92.529
-0.318,-0.428,2.589,-167.175,-91.187,-84.045
-0.152,-0.340,2.445,-124.451,-69.336,-77.271
-0.038,-0.143,2.183,-94.482,-38.513,-69.092
0.030,0.034,1.795,-84.412,-4.395,-62.012
0.063,0.151,1.378,-94.604,25.452,-56.885
0.078,0.226,1.049,-117.310,39.795,-52.002
0.063,0.207,0.865,-133.057,31.494,-50.720
0.022,0.152,0.887,-136.169,3.357,-53.101
-0.029,-0.011,1.012,-130.249,-29.602,-54.871
-0.032,-0.109,1.282,-119.446,-57.312,-53.650
-0.009,-0.255,1.482,-99.548,-71.533,-53.223
-0.034,-0.322,1.598,-76.477,-70.007,-50.232
-0.078,0.895,2.758,-119.873,-38.391,-59.326
-0.199,-0.410,2.327,-217.407,57.556,-85.693
-0.482,-1.231,1.913,-125.671,98.450,-44.312
-0.193,-0.665,1.715,-77.332,57.556,-6.104
0.299,-0.245,1.274,-24.902,31.128,23.743
0.458,0.149,0.360,22.339,17.273,24.963
0.276,0.111,0.172,76.477,-25.696,1.038
0.399,-0.292,0.525,72.510,-71.655,-23.621
0.561,-0.365,0.800,12.939,-60.974,-19.531
0.525,-0.462,0.844,-9.888,-26.367,-10.559
0.413,-0.590,0.759,-16.541,-3.906,-10.803
0.416,-0.631,0.717,-19.531,2.197,-8.911
0.471,-0.618,0.735,-19.104,1.526,-7.324
0.479,-0.652,0.807,-12.878,-0.183,-9.338
0.475,-0.685,0.839,-7.812,2.441,-11.841
0.465,-0.680,0.778,-9.399,9.705,-10.498
0.478,-0.618,0.656,-15.686,16.785,-7.568
0.496,-0.555,0.544,-20.813,18.188,-5.798
0.483,-0.545,0.499,-25.635,13.123,-6.226
0.501,-0.547,0.529,-30.273,5.371,-6.836
0.507,-0.540,0.552,-32.532,-1.221,-5.920
0.489,-0.521,0.602,-35.034,-5.005,-5.310
0.500,-0.532,0.662,-38.086,-5.432,-4.761
0.494,-0.538,0.718,-39.978,-6.592,-2.441
0.479,-0.510,0.773,-39.856,-6.897,-0.244
0.450,-0.513,0.801,-39.673,-5.432,1.160
0.433,-0.505,0.848,-41.016,-4.944,2.441
0.442,-0.483,0.876,-38.513,-6.592,4.028
0.462,-0.472,0.908,-30.701,-8.667,3.540
0.488,-0.458,0.906,-21.851,-8.728,3.723
0.530,-0.424,0.880,-16.907,-5.859,4.944
0.585,-0.392,0.854,-14.160,-2.930,5.493
0.592,-0.368,0.828,-11.536,1.343,4.517
0.580,-0.356,0.785,-11.780,5.310,2.808
0.566,-0.360,0.771,-15.442,7.141,1.587
0.536,-0.382,0.793,-19.226,4.822,0.671
0.520,-0.402,0.844,-19.104,-0.977,-0.244
0.523,-0.400,0.887,-16.663,-5.981,-0.671
0.534,-0.378,0.902,-14.160,-6.653,-0.732
0.528,-0.349,0.911,-13.184,-4.333,-2.075
0.522,-0.363,0.902,-13.733,-0.061,-4.333
0.508,-0.381,0.890,-14.282,4.150,-6.042
0.500,-0.375,0.870,-13.794,8.240,-6.714
0.476,-0.391,0.842,-12.817,11.353,-7.629
0.457,-0.408,0.826,-12.268,12.207,-8.362
0.444,-0.409,0.811,-11.536,11.475,-8.362
0.431,-0.399,0.792,-10.376,9.644,-8.057
0.412,-0.414,0.782,-10.132,6.897,-7.507
0.417,-0.420,0.794,-10.193,5.127,-7.202
0.407,-0.425,0.795,-8.789,4.028,-7.019
0.394,-0.442,0.768,-7.385,3.113,-5.676
0.383,-0.445,0.764,-7.935,3.052,-4.028
0.388,-0.445,0.770,-6.714,1.282,-1.953
0.403,-0.422,0.780,-3.296,-2.197,-0.366
0.422,-0.404,0.788,0.000,-4.578,0.122
0.435,-0.378,0.803,0.000,-5.127,0.610
0.458,-0.363,0.816,-2.563,-4.150,1.221
0.475,-0.347,0.835,-4.333,-2.686,1.038
0.475,-0.347,0.840,-4.944,-1.160,0.488
0.498,-0.357,0.835,-6.165,1.892,-1.221
0.519,-0.335,0.824,-6.714,4.272,-1.465
0.513,-0.341,0.806,-5.859,5.554,-2.319
0.511,-0.364,0.808,-5.493,6.897,-4.333
0.501,-0.371,0.824,-6.409,7.935,-5.066
0.497,-0.383,0.827,-6.348,8.240,-5.676
0.473,-0.372,0.810,-5.310,7.996,-5.615
0.449,-0.375,0.823,-5.981,6.714,-5.432
0.443,-0.399,0.874,-6.348,4.089,-5.615
0.433,-0.413,0.909,-3.540,2.258,-5.493
0.440,-0.394,0.900,-1.038,3.662,-4.761
0.454,-0.351,0.877,-0.488,6.958,-4.211
0.467,-0.348,0.867,0.122,9.644,-5.249
0.468,-0.375,0.867,-0.122,12.146,-6.409
0.481,-0.382,0.855,-1.343,15.564,-6.042
0.492,-0.390,0.809,-1.770,18.005,-5.920
0.485,-0.398,0.746,-0.732,17.883,-6.042
0.490,-0.375,0.694,-0.488,13.855,-5.005
0.490,-0.364,0.678,-1.160,7.690,-3.540
-0.269,0.306,-3.038,-258.484,-61.584,92.651
-0.300,0.403,-2.904,-271.545,-97.290,96.863
-0.309,0.492,-2.756,-286.987,-131.042,104.309
-0.286,0.609,-2.562,-305.176,-158.569,113.220
-0.238,0.713,-2.385,-323.425,-178.711,118.958
-0.247,0.848,-2.146,-339.722,-196.655,124.512
-0.208,0.916,-1.956,-356.018,-211.609,127.075
-0.192,0.978,-1.755,-372.498,-223.145,128.784
-0.150,1.053,-1.564,-387.878,-233.948,130.066
-0.131,1.105,-1.367,-398.621,-248.352,129.028
-0.128,1.128,-1.164,-403.870,-265.625,123.657
-0.142,1.146,-0.960,-404.236,-284.241,118.225
-0.114,1.236,-0.727,-398.682,-305.847,114.563
-0.092,1.287,-0.489,-385.864,-329.529,102.783
-0.109,1.268,-0.260,-368.591,-350.525,84.106
-0.122,1.267,-0.025,-355.713,-365.906,67.017
-0.118,1.273,0.230,-350.342,-374.512,50.964
-0.136,1.257,0.516,-348.267,-374.878,33.569
-0.110,1.221,0.859,-343.994,-370.361,12.939
-0.169,1.072,1.266,-334.229,-360.657,-9.888
-0.202,0.851,1.604,-322.754,-334.351,-28.442
-0.187,0.678,1.835,-314.392,-293.823,-34.973
-0.209,0.606,2.026,-307.861,-246.399,-34.424
-0.274,0.542,2.099,-302.612,-197.815,-33.325
-0.301,0.493,2.142,-294.128,-160.034,-32.593
-0.265,0.447,2.189,-276.123,-137.695,-31.738
-0.240,0.383,2.253,-244.446,-122.742,-35.217
-0.152,0.281,2.249,-201.660,-109.131,-39.856
-0.089,0.283,2.122,-161.987,-89.111,-41.565
-0.096,0.396,1.913,-138.428,-60.364,-39.368
-0.071,0.458,1.654,-130.310,-35.522,-35.034
-0.005,0.461,1.501,-130.371,-27.161,-31.372
0.057,0.478,1.412,-126.709,-26.917,-27.832
0.142,0.495,1.425,-116.638,-31.006,-24.048
0.242,0.478,1.460,-103.577,-34.912,-23.499
0.292,0.400,1.459,-91.736,-31.433,-24.475
0.311,0.457,1.374,-83.923,-20.996,-22.217
0.373,0.455,1.252,-81.482,-12.207,-21.362
0.371,0.410,1.182,-74.951,-8.728,-23.376
0.359,0.356,1.168,-67.810,-10.498,-23.499
0.401,0.315,1.228,-61.279,-16.602,-22.156
0.403,0.256,1.298,-49.072,-22.034,-22.522
0.403,0.185,1.371,-36.377,-24.353,-22.888
0.444,0.148,1.381,-27.954,-20.996,-21.118
0.487,0.156,1.340,-19.958,-13.245,-20.447
0.505,0.147,1.262,-11.658,-3.784,-22.766
0.513,0.118,1.162,-7.690,7.446,-25.757
0.521,0.076,1.055,-7.263,18.677,-28.381
0.510,0.012,0.950,-6.592,25.330,-31.189
0.493,-0.048,0.868,-5.554,27.588,-31.799
0.503,-0.108,0.818,-4.883,26.489,-31.677
0.510,-0.155,0.781,-1.648,22.583,-31.250
0.517,-0.196,0.733,1.831,18.005,-29.724
0.487,-0.208,0.711,1.404,15.198,-26.062
0.484,-0.225,0.726,-2.136,13.123,-22.461
0.481,-0.266,0.792,-5.432,10.376,-19.897
0.485,-0.312,0.851,-6.226,7.935,-16.724
0.487,-0.323,0.883,-5.432,7.385,-12.146
0.526,-0.307,0.855,-4.578,7.996,-8.362
0.540,-0.279,0.784,-2.258,8.423,-6.226
0.539,-0.242,0.730,-0.549,6.897,-3.967
0.553,-0.234,0.708,-0.793,1.648,-0.122
0.615,-0.212,0.714,-0.244,-3.113,0.488
0.607,-0.192,0.744,1.709,-6.042,0.305
0.630,-0.187,0.775,-0.366,-5.676,0.427
0.658,-0.167,0.802,-6.042,-2.869,0.916
0.644,-0.174,0.833,-9.644,0.366,-0.732
0.620,-0.205,0.883,-10.559,1.465,-2.136
0.613,-0.218,0.904,-10.254,0.610,-1.831
0.603,-0.200,0.895,-7.385,-1.160,-1.343
0.595,-0.171,0.874,-2.563,-4.456,-1.099
0.604,-0.155,0.860,1.160,-7.812,-1.038
0.599,-0.145,0.849,3.662,-10.315,-1.526
0.591,-0.140,0.846,4.578,-10.681,-2.502
0.595,-0.138,0.833,3.845,-9.033,-3.723
0.591,-0.128,0.809,1.526,-5.676,-5.188
0.572,-0.135,0.806,-0.916,-2.747,-6.958
0.561,-0.158,0.818,-3.357,-0.916,-7.690
0.548,-0.165,0.816,-5.066,0.244,-7.874
0.525,-0.175,0.805,-4.639,0.305,-7.996
0.501,-0.186,0.810,-3.906,-1.709,-7.202
0.484,-0.184,0.829,-3.479,-3.784,-6.104
0.465,-0.187,0.858,-3.906,-5.249,-4.211
0.463,-0.199,0.889,-4.395,-5.676,-2.014
0.479,-0.210,0.903,-2.686,-5.859,-0.793
0.492,-0.201,0.884,-0.122,-5.066,-0.366
0.508,-0.181,0.856,0.732,-3.418,-0.183
0.530,-0.179,0.836,0.061,-2.136,-0.793
0.542,-0.182,0.814,-0.610,-0.977,-1.648
0.544,-0.175,0.795,-0.977,0.793,-1.831
0.536,-0.172,0.783,-0.977,1.099,-2.197
0.542,-0.178,0.775,-1.587,0.488,-2.380
0.548,-0.176,0.773,-2.686,0.366,-2.197
0.538,-0.177,0.781,-4.211,0.916,-1.709
0.540,-0.172,0.809,-5.188,-0.305,-0.977
0.559,-0.180,0.836,-4.456,-2.930,-0.977
0.549,-0.172,0.849,-1.587,-3.784,-1.953
0.525,-0.165,0.868,-1.160,-3.479,-2.197
0.528,-0.173,0.899,-2.197,-3.479,-1.709
0.521,-0.174,0.926,-1.160,-4.211,-1.953
0.521,-0.182,0.947,1.465,-4.639,-2.869
0.524,-0.177,0.937,3.174,-3.296,-3.235
0.525,-0.157,0.903,2.930,0.183,-3.235
0.539,-0.151,0.871,2.258,2.686,-3.418
0.548,-0.176,0.841,2.991,3.784,-4.822
0.539,-0.183,0.808,5.005,4.517,-5.920
0.533,-0.177,0.774,5.371,5.005,-6.104
0.528,-0.173,0.759,4.639,4.456,-5.554
0.530,-0.175,0.754,3.845,2.930,-5.005
0.527,-0.176,0.761,2.502,0.610,-4.089
0.536,-0.166,0.774,1.587,-1.160,-3.235
0.538,-0.164,0.793,0.671,-2.686,-2.869
0.531,-0.185,0.819,-0.549,-3.357,-3.113
0.529,-0.198,0.839,-2.075,-2.502,-2.014
0.531,-0.184,0.845,-2.502,-2.014,-0.916
0.537,-0.167,0.854,-0.916,-2.441,-1.465
0.542,-0.171,0.862,0.671,-2.625,-2.686
0.547,-0.177,0.864,0.671,-0.977,-3.479
0.552,-0.170,0.851,0.061,2.014,-4.395
0.540,-0.779,-2.598,-61.584,21.362,-4.639
0.501,-0.773,-2.998,-92.529,18.860,-2.014
0.463,-0.720,-3.234,-129.944,10.437,1.892
0.428,-0.715,-3.409,-164.856,4.456,-0.732
0.363,-0.720,-3.542,-196.655,3.357,-3.418
0.282,-0.601,-3.688,-232.483,4.761,-2.258
0.183,-0.430,-3.755,-268.127,-1.343,1.221
0.102,-0.195,-3.756,-297.852,-17.395,6.836
0.044,0.088,-3.626,-325.439,-43.152,15.808
0.018,0.374,-3.409,-349.182,-75.745,25.330
-0.013,0.641,-3.120,-369.507,-111.023,33.691
-0.068,0.869,-2.807,-389.709,-143.066,44.434
-0.082,1.195,-2.422,-414.551,-178.650,61.035
-0.176,1.558,-1.825,-438.721,-220.093,74.524
-0.251,1.837,-0.965,-456.787,-263.428,78.186
-0.289,1.863,0.067,-466.797,-305.420,71.533
-0.275,1.712,1.080,-465.759,-323.425,57.068
-0.192,1.434,1.916,-450.989,-308.289,44.312
0.038,1.225,2.244,-427.979,-263.428,39.246
0.182,1.260,2.107,-399.353,-199.524,35.950
0.177,1.425,1.776,-364.075,-148.132,27.771
-0.006,1.548,1.640,-330.566,-128.540,15.564
-0.043,1.492,1.763,-310.486,-127.441,6.592
-0.037,1.383,1.960,-294.434,-128.906,1.221
-0.113,1.273,2.083,-271.484,-121.643,-3.296
-0.110,1.159,2.159,-251.587,-109.009,-2.625
-0.025,1.060,2.173,-233.032,-100.586,-0.366
-0.017,1.003,2.167,-202.393,-95.337,-2.075
0.005,0.915,2.230,-172.241,-89.355,-3.113
0.081,0.871,2.144,-153.564,-74.707,-4.517
0.130,0.820,2.073,-139.771,-55.420,-6.836
0.169,0.664,2.030,-123.413,-39.673,-14.709
0.162,0.465,1.944,-105.103,-28.259,-21.973
0.181,0.344,1.794,-88.074,-21.423,-20.813
0.229,0.272,1.704,-72.815,-18.188,-20.020
0.273,0.168,1.641,-56.946,-16.296,-22.766
0.324,0.059,1.547,-42.236,-9.766,-25.269
0.355,-0.023,1.415,-31.555,-0.183,-27.527
0.371,-0.088,1.269,-24.170,9.277,-28.748
0.376,-0.143,1.099,-15.930,15.869,-29.480
0.250,0.511,1.315,-12.573,18.433,-33.325
0.645,0.020,1.273,-10.498,26.184,-57.678
0.400,-0.467,1.170,-10.498,33.447,-59.875
0.308,-0.419,0.780,-22.583,47.241,-35.889
0.334,-0.320,0.553,-24.597,38.147,-14.648
0.379,-0.373,0.567,-5.310,11.108,-7.507
0.457,-0.438,0.686,11.597,-7.568,-3.662
0.555,-0.408,0.773,12.695,-7.690,0.244
0.606,-0.380,0.767,7.568,1.587,0.366
0.604,-0.333,0.790,2.197,9.460,-2.808
0.609,-0.280,0.897,-3.052,11.841,-5.981
0.627,-0.292,0.999,-5.676,10.376,-9.521
0.632,-0.327,1.033,-7.935,10.864,-12.146
0.639,-0.322,0.978,-10.803,15.930,-11.536
0.637,-0.325,0.869,-12.207,19.775,-9.583
0.631,-0.324,0.768,-8.545,18.127,-9.338
0.641,-0.308,0.706,-3.479,13.062,-8.911
0.667,-0.272,0.693,-2.136,8.850,-8.606
0.673,-0.253,0.712,-3.784,7.385,-9.216
0.630,-0.236,0.717,-6.592,9.155,-10.437
0.578,-0.223,0.719,-11.536,10.315,-11.719
0.531,-0.259,0.749,-16.724,7.874,-12.878
0.474,-0.317,0.802,-17.944,3.235,-12.573
0.432,-0.363,0.855,-16.663,-1.648,-10.376
0.432,-0.374,0.897,-12.939,-5.249,-6.775
0.443,-0.392,0.920,-6.592,-7.324,-4.272
0.434,-0.370,0.917,0.183,-6.958,-2.197
0.462,-0.335,0.869,2.747,-4.089,-0.366
0.492,-0.322,0.814,3.052,1.038,0.244
0.503,-0.304,0.780,1.648,7.202,-0.549
0.531,-0.282,0.747,-1.648,12.207,-1.160
0.529,-0.287,0.721,-4.761,15.015,-2.625
0.535,-0.292,0.724,-6.897,15.442,-2.502
0.539,-0.283,0.753,-7.080,12.756,-1.343
0.547,-0.274,0.785,-5.615,7.629,0.549
0.566,-0.271,0.807,-3.479,0.977,1.343
0.573,-0.266,0.799,-1.038,-4.272,1.770
0.576,-0.267,0.775,-0.244,-8.057,1.770
0.570,-0.293,0.759,-0.549,-11.536,1.160
0.572,-0.305,0.762,-0.061,-13.977,0.305
0.573,-0.314,0.748,0.427,-12.573,-0.732
0.542,-0.322,0.721,-0.916,-8.057,-1.953
0.513,-0.335,0.734,-3.967,-3.479,-2.136
0.498,-0.353,0.782,-4.639,-0.916,-1.465
0.494,-0.357,0.821,-2.258,0.000,-0.916
0.490,-0.352,0.835,0.488,1.099,-0.427
0.486,-0.344,0.847,1.892,3.296,-0.061
0.492,-0.328,0.829,1.953,5.127,0.305
0.503,-0.301,0.797,0.916,6.104,0.854
0.519,-0.277,0.782,-1.770,5.737,1.648
0.528,-0.276,0.792,-5.371,4.578,2.441
0.542,-0.280,0.802,-7.996,2.441,3.845
0.558,-0.289,0.784,-8.057,-0.122,5.310
0.542,-0.307,0.770,-5.493,-2.808,5.798
0.528,-0.314,0.762,-2.502,-4.639,6.165
0.532,-0.312,0.769,-0.366,-5.615,6.592
0.541,-0.304,0.785,1.587,-6.104,5.981
0.537,-0.292,0.786,2.808,-5.798,4.211
0.541,-0.289,0.784,1.526,-4.272,2.808
0.543,-0.292,0.776,-0.916,-2.014,1.526
0.543,-0.296,0.795,-2.441,0.000,0.244
0.538,-0.301,0.794,-3.113,2.075,-0.671
0.532,-0.314,0.793,-4.578,3.967,-1.038
0.521,-0.324,0.798,-5.005,4.578,-0.549
0.522,-0.319,0.808,-3.723,4.333,0.488
0.532,-0.312,0.803,-2.014,3.540,0.916
0.523,-0.307,0.800,-0.977,3.357,1.282
0.519,-0.303,0.806,-0.305,3.235,1.160
0.528,-0.292,0.797,0.061,2.014,0.610
0.542,-0.282,0.774,0.000,0.549,-0.183
0.547,-0.280,0.759,-0.793,0.671,-0.122
0.540,-0.267,0.763,-2.625,1.770,0.549
0.541,-0.262,0.778,-4.150,0.916,0.732
0.545,-0.278,0.786,-4.211,-1.770,0.488
0.525,-0.299,0.779,-4.150,-2.441,0.610
0.508,-0.304,0.788,-4.089,-1.953,2.014
0.501,-0.312,0.807,-2.808,-2.502,2.869
0.502,-0.313,0.833,-0.488,-3.906,3.235
0.519,-0.316,0.853,1.648,-4.272,2.808
0.379,-0.683,-2.787,-96.924,-7.507,3.723
0.351,-0.706,-3.106,-128.479,-13.062,7.507
0.313,-0.677,-3.357,-156.616,-24.170,10.254
0.326,-0.631,-3.565,-184.570,-36.621,12.085
0.315,-0.516,-3.698,-217.529,-51.636,15.991
0.308,-0.348,-3.753,-252.258,-69.824,21.606
0.241,-0.049,-3.670,-284.485,-94.116,28.992
0.228,0.144,-3.539,-316.101,-123.779,33.325
0.230,0.467,-3.274,-344.482,-153.687,39.917
0.281,0.733,-3.025,-366.821,-184.631,43.335
0.291,1.019,-2.717,-380.066,-217.834,41.626
0.240,1.277,-2.381,-389.526,-250.366,38.574
0.100,1.467,-2.060,-404.663,-278.259,37.781
-0.025,1.682,-1.617,-428.284,-307.007,42.725
-0.176,1.878,-1.085,-450.684,-335.449,45.715
-0.410,2.031,-0.329,-468.140,-356.995,45.471
-0.536,1.923,0.553,-479.614,-371.033,36.621
-0.571,1.664,1.427,-474.854,-366.577,23.987
-0.560,1.399,1.965,-452.698,-330.261,13.855
-0.506,1.294,2.194,-426.880,-279.724,10.010
-0.421,1.292,2.077,-394.226,-233.826,5.554
-0.414,1.338,1.866,-354.248,-203.857,0.000
-0.453,1.369,1.783,-316.711,-191.467,-7.812
-0.478,1.357,1.872,-292.175,-184.631,-12.939
-0.376,1.292,2.014,-279.907,-172.485,-15.320
-0.296,1.228,2.143,-261.475,-154.053,-23.315
-0.246,1.094,2.114,-231.323,-133.484,-32.898
-0.226,1.028,2.050,-205.872,-111.206,-40.894
-0.204,0.972,1.943,-187.134,-88.684,-46.570
-0.201,0.948,1.931,-172.974,-72.815,-49.866
-0.241,0.806,1.983,-157.715,-62.195,-53.955
-0.247,0.774,2.127,-142.639,-51.880,-53.833
-0.141,0.665,2.196,-124.695,-41.382,-56.030
-0.139,0.491,2.161,-96.008,-29.968,-60.547
-0.151,0.375,1.995,-70.557,-16.296,-61.951
-0.127,0.337,1.781,-52.429,-5.371,-59.326
-0.055,0.264,1.588,-35.889,-0.732,-57.861
-0.004,0.196,1.485,-19.836,2.258,-57.678
0.072,0.123,1.281,-9.827,9.216,-55.908
0.168,0.109,1.085,-8.789,17.334,-52.979
-0.207,0.223,0.410,-21.240,14.404,-55.664
0.232,-0.026,1.012,-54.871,-12.756,-56.946
0.349,-0.251,1.346,-27.405,1.160,-45.166
0.254,-0.302,1.347,-6.958,24.353,-37.781
0.253,-0.216,1.022,-9.949,49.683,-26.550
0.217,-0.159,0.822,-6.226,51.758,-17.029
0.234,-0.144,0.788,-1.770,32.532,-15.747
0.332,-0.249,0.867,-0.916,12.939,-15.747
0.403,-0.275,0.966,-3.967,5.066,-9.888
0.470,-0.231,0.967,-8.789,6.165,-5.188
0.495,-0.230,0.933,-7.507,6.592,-5.127
0.519,-0.220,0.908,-6.104,5.310,-4.517
0.586,-0.186,0.899,-7.202,4.211,-3.723
0.599,-0.192,0.907,-5.493,3.967,-6.042
0.578,-0.209,0.910,-5.066,6.165,-8.301
0.565,-0.217,0.901,-8.484,9.888,-9.644
0.549,-0.229,0.887,-10.681,11.841,-11.108
0.519,-0.245,0.889,-10.193,10.742,-12.329
0.470,-0.229,0.869,-8.911,7.568,-12.085
0.338,-0.203,0.745,-11.902,2.014,-9.888
0.334,-0.229,0.760,-20.081,-7.751,-6.653
0.356,-0.241,0.959,-19.836,-15.198,-5.005
0.373,-0.225,1.024,-11.414,-12.878,-4.150
0.384,-0.171,0.993,-7.874,-3.418,-3.662
0.401,-0.157,0.943,-5.615,5.981,-3.418
0.407,-0.167,0.922,-2.991,10.559,-3.052
0.445,-0.147,0.887,-0.610,11.658,-2.197
0.488,-0.140,0.845,2.075,10.925,-2.625
0.495,-0.150,0.824,2.563,10.803,-4.211
0.500,-0.179,0.789,-0.793,14.099,-4.028
0.497,-0.191,0.790,-5.127,15.442,-3.845
0.475,-0.205,0.797,-5.371,12.085,-4.150
0.461,-0.212,0.839,-4.211,6.653,-3.479
0.458,-0.196,0.883,-3.784,2.686,-1.587
0.460,-0.187,0.921,-3.723,-1.587,-0.610
0.440,-0.190,0.957,-2.930,-4.517,0.122
0.440,-0.190,0.987,-2.380,-5.615,1.404
0.454,-0.179,0.983,-1.587,-4.944,2.502
0.465,-0.163,0.949,0.671,-3.113,1.831
0.472,-0.165,0.908,2.014,0.305,0.061
0.466,-0.163,0.855,1.160,5.371,-1.770
0.491,-0.156,0.793,-2.014,8.789,-3.418
0.471,-0.198,0.792,-4.883,9.277,-5.310
0.452,-0.205,0.785,-6.531,8.728,-3.540
0.449,-0.189,0.794,-7.568,5.737,-1.892
0.453,-0.196,0.842,-5.066,0.427,-1.526
0.466,-0.196,0.880,-3.967,-3.113,-0.793
0.469,-0.187,0.898,-4.150,-3.174,0.244
0.464,-0.201,0.909,-2.563,-2.625,0.305
0.452,-0.208,0.912,-0.488,-2.563,0.183
0.456,-0.191,0.909,1.709,-2.930,-0.061
0.460,-0.176,0.917,3.662,-2.502,-0.427
0.443,-0.172,0.908,3.296,-0.610,-1.343
0.446,-0.170,0.881,1.404,1.709,-0.916
0.489,-0.150,0.849,-0.732,2.747,-1.953
0.455,-0.176,0.865,-1.465,3.479,-3.601
0.448,-0.173,0.852,-3.784,4.883,-2.563
0.443,-0.176,0.833,-5.798,4.211,-1.892
0.434,-0.184,0.837,-4.822,0.549,-2.380
0.441,-0.193,0.869,-4.333,-2.441,-2.258
0.435,-0.191,0.890,-4.211,-3.357,-1.221
0.428,-0.192,0.908,-3.601,-3.479,0.122
0.447,-0.169,0.934,-2.136,-3.784,2.014
0.466,-0.153,0.931,0.793,-3.540,2.075
0.474,-0.152,0.905,3.113,-1.953,0.671
0.478,-0.150,0.860,2.869,1.160,-0.061
0.490,-0.152,0.827,2.075,3.113,-1.038
0.478,-0.157,0.805,2.075,3.235,-2.991
0.483,-0.171,0.781,1.038,3.113,-4.333
0.433,-0.187,0.801,-2.136,2.869,-3.601
0.424,-0.180,0.840,-5.005,1.587,-2.197
0.428,-0.186,0.894,-4.700,-1.587,-1.770
0.434,-0.187,0.930,-3.113,-3.540,-1.892
0.453,-0.179,0.938,-2.197,-3.357,-1.221
0.458,-0.178,0.932,-0.977,-2.380,-0.916
0.460,-0.177,0.925,1.343,-1.587,-0.549
0.466,-0.166,0.923,3.845,-1.465,-1.099
0.492,-0.142,0.929,5.859,-0.244,-2.258
0.500,-0.150,0.903,5.981,3.113,-4.700
0.648,-0.881,-2.453,-93.079,36.682,-1.831
0.617,-0.907,-2.637,-123.291,30.640,3.174
0.657,-0.911,-2.777,-145.813,14.526,8.301
0.657,-0.862,-2.839,-164.185,-6.226,12.207
0.638,-0.799,-2.844,-184.021,-27.344,16.663
0.641,-0.704,-2.837,-208.984,-45.715,23.865
0.654,-0.547,-2.795,-235.474,-63.477,32.410
0.661,-0.366,-2.734,-256.836,-83.801,38.025
0.667,-0.120,-2.599,-273.376,-106.384,41.016
0.701,0.082,-2.448,-285.034,-127.319,38.086
0.646,0.254,-2.200,-293.152,-145.386,30.029
0.600,0.369,-2.024,-302.856,-157.227,21.667
0.508,0.545,-1.864,-318.542,-162.903,20.508
0.437,0.726,-1.720,-338.501,-168.945,22.095
0.363,0.813,-1.549,-355.286,-179.382,22.156
0.287,0.906,-1.338,-369.141,-191.956,22.644
0.243,0.984,-1.100,-380.859,-205.200,25.818
0.208,1.024,-0.850,-387.329,-216.309,25.818
0.099,1.039,-0.599,-386.719,-225.891,24.414
0.015,1.061,-0.300,-381.836,-236.267,23.865
-0.003,1.087,0.064,-372.498,-248.657,21.484
0.055,1.130,0.395,-360.779,-252.563,15.808
0.083,1.153,0.590,-350.403,-242.676,9.155
-0.025,1.277,0.846,-340.027,-224.548,-1.221
-0.159,1.301,1.243,-334.473,-206.604,-11.292
-0.175,1.145,1.758,-334.656,-191.101,-22.827
-0.255,0.964,2.199,-325.928,-172.302,-27.466
-0.228,0.848,2.424,-305.786,-149.414,-22.461
-0.162,0.853,2.510,-276.184,-131.653,-17.395
-0.139,0.872,2.478,-232.178,-119.751,-18.127
-0.088,0.854,2.388,-188.232,-110.901,-22.156
-0.034,0.865,2.291,-158.386,-100.342,-26.184
0.022,0.805,2.183,-138.977,-83.008,-30.029
0.035,0.843,2.037,-126.709,-61.584,-32.166
0.050,0.750,1.871,-117.920,-42.236,-35.889
0.067,0.660,1.754,-106.934,-27.832,-36.987
0.122,0.618,1.584,-95.337,-16.541,-35.278
0.140,0.551,1.434,-78.125,-12.085,-35.339
0.144,0.490,1.328,-61.096,-11.719,-34.790
0.181,0.428,1.273,-53.284,-11.841,-30.273
0.249,0.397,1.271,-46.753,-9.705,-28.320
0.230,0.339,1.249,-37.476,-7.263,-29.663
0.242,0.252,1.237,-35.156,-1.892,-27.954
0.290,0.165,1.222,-36.560,4.456,-25.696
0.267,0.075,1.179,-31.006,9.216,-24.780
0.287,-0.004,1.138,-24.658,10.315,-21.790
0.338,-0.041,1.061,-18.860,9.583,-18.005
0.339,-0.041,1.000,-11.780,8.179,-15.015
0.381,-0.073,0.979,-7.019,6.897,-13.306
0.422,-0.104,0.963,-3.418,6.409,-13.306
0.420,-0.126,0.891,-1.587,9.338,-12.756
0.444,-0.146,0.809,-2.991,12.146,-11.414
0.432,-0.176,0.774,-5.432,12.939,-9.338
0.427,-0.212,0.738,-7.812,11.902,-6.470
0.429,-0.226,0.748,-9.277,8.240,-2.197
0.436,-0.247,0.796,-9.094,3.662,1.709
0.438,-0.250,0.856,-6.958,-0.732,5.127
0.482,-0.235,0.884,-4.578,-3.662,7.446
0.510,-0.223,0.873,-3.723,-3.357,7.629
0.534,-0.210,0.855,-5.615,0.366,7.629
0.563,-0.213,0.844,-9.216,4.089,7.629
0.573,-0.214,0.813,-10.010,6.653,6.409
0.568,-0.210,0.787,-9.338,7.202,4.883
0.575,-0.214,0.765,-9.155,5.798,3.662
0.576,-0.214,0.753,-9.644,4.028,2.502
0.586,-0.214,0.760,-9.827,1.526,2.014
0.601,-0.224,0.779,-9.338,-0.549,1.343
0.581,-0.212,0.793,-8.301,-0.732,0.183
0.562,-0.198,0.827,-8.850,-0.061,0.122
0.557,-0.189,0.891,-8.728,-1.099,0.549
0.554,-0.176,0.944,-6.470,-1.953,0.671
0.568,-0.151,0.959,-5.676,-0.305,0.000
0.563,-0.115,0.922,-7.507,4.761,-1.465
0.552,-0.085,0.845,-10.925,9.277,-4.395
0.537,-0.067,0.816,-15.747,9.705,-6.897
0.579,-0.114,0.825,-18.433,9.033,-7.935
0.570,-0.145,0.904,-17.273,8.484,-7.080
0.540,-0.159,0.919,-10.498,8.301,-5.920
0.532,-0.154,0.905,-1.282,5.737,-4.211
0.529,-0.128,0.873,6.958,1.099,-3.174
0.537,-0.110,0.836,11.047,-2.075,-3.052
0.538,-0.111,0.813,9.338,-2.075,-3.540
0.537,-0.141,0.800,4.333,0.000,-3.662
0.542,-0.174,0.771,-0.427,1.587,-3.601
0.542,-0.186,0.758,-2.747,2.258,-2.747
0.542,-0.191,0.761,-2.625,1.831,-2.075
0.527,-0.192,0.776,-3.845,1.099,-2.014
0.536,-0.196,0.797,-5.676,0.366,-1.526
0.538,-0.201,0.822,-6.104,0.000,-1.404
0.522,-0.196,0.837,-5.554,0.244,-1.770
0.521,-0.188,0.878,-4.883,0.305,-0.977
0.535,-0.166,0.903,-3.113,-0.488,-0.854
0.540,-0.148,0.898,-1.160,-0.610,-1.160
0.558,-0.128,0.876,-1.099,0.610,-0.916
0.554,-0.129,0.847,-1.526,2.197,-1.343
0.540,-0.140,0.808,-0.854,2.808,-1.953
0.541,-0.142,0.774,-0.366,2.625,-1.465
0.544,-0.139,0.744,-0.793,2.625,-1.404
0.526,-0.148,0.747,-2.625,2.563,-1.404
0.522,-0.160,0.781,-5.249,2.197,-0.549
0.530,-0.170,0.826,-5.981,0.061,0.488
0.537,-0.165,0.853,-4.272,-2.502,0.610
0.548,-0.155,0.864,-2.319,-3.723,0.671
0.554,-0.156,0.868,-1.526,-3.723,0.610
0.552,-0.164,0.881,-1.099,-2.686,0.671
0.549,-0.143,0.846,1.465,-1.831,0.793
0.561,-0.131,0.838,4.089,-3.418,-0.183
0.567,-0.134,0.833,5.981,-2.869,-1.465
0.569,-0.122,0.823,4.272,1.343,-2.258
0.565,-0.116,0.797,0.305,6.775,-3.601
0.552,-0.141,0.771,-3.113,9.888,-5.737
0.534,-0.172,0.735,-5.615,9.888,-6.226
0.521,-0.178,0.744,-7.507,6.836,-4.211
0.527,-0.186,0.790,-7.324,1.526,-2.136
0.532,-0.193,0.846,-4.700,-2.869,-0.854
0.529,-0.175,0.872,-2.380,-4.211,0.122
0.523,-0.161,0.875,-0.366,-4.272,0.244
0.521,-0.146,0.878,1.221,-4.517,0.732
0.529,-0.132,0.886,2.380,-4.822,1.038
0.964,-0.997,-2.196,-60.852,8.179,-0.793
0.925,-1.028,-2.435,-72.937,-8.484,0.549
0.942,-1.011,-2.715,-90.149,-26.428,3.235
0.952,-0.897,-2.913,-114.319,-41.077,3.174
0.934,-0.752,-3.055,-143.677,-53.223,3.052
0.951,-0.610,-3.075,-179.199,-64.026,-1.648
0.946,-0.525,-3.027,-210.510,-74.890,-9.888
0.863,-0.395,-2.944,-236.633,-84.351,-16.968
0.766,-0.238,-2.876,-268.066,-89.905,-20.142
0.671,-0.041,-2.782,-301.575,-95.642,-18.005
0.547,0.164,-2.571,-329.529,-109.741,-13.611
0.430,0.342,-2.349,-347.473,-132.019,-8.850
0.328,0.519,-2.056,-356.934,-160.706,-1.282
0.267,0.734,-1.722,-362.488,-192.688,5.981
0.184,0.954,-1.323,-365.540,-222.595,11.475
0.132,1.189,-0.857,-369.385,-243.652,11.719
0.121,1.389,-0.306,-375.916,-258.606,9.277
0.031,1.473,0.242,-380.554,-264.404,-1.221
-0.018,1.538,0.786,-379.944,-256.653,-12.024
-0.038,1.479,1.253,-378.784,-239.807,-24.597
-0.047,1.354,1.570,-377.563,-211.731,-32.837
-0.014,1.278,1.718,-370.667,-179.871,-34.607
-0.133,1.324,1.787,-351.990,-157.471,-35.522
-0.317,1.349,1.957,-328.735,-145.752,-36.499
-0.347,1.258,2.293,-312.561,-142.578,-34.058
-0.354,1.190,2.717,-289.551,-139.893,-33.936
-0.339,1.095,2.949,-249.084,-127.686,-34.729
-0.249,1.005,2.873,-172.729,-64.941,-40.344
-0.132,1.012,2.058,-145.264,-35.217,-43.335
-0.056,0.902,1.680,-125.610,-20.630,-46.021
-0.063,0.911,1.455,-111.511,-16.846,-43.945
-0.025,0.826,1.346,-104.187,-18.860,-40.649
0.013,0.702,1.406,-99.182,-21.484,-35.095
0.094,0.602,1.444,-91.797,-23.743,-29.114
0.124,0.521,1.466,-75.623,-24.353,-25.757
0.164,0.428,1.471,-59.204,-21.912,-24.780
0.182,0.345,1.446,-46.387,-16.296,-25.818
0.215,0.257,1.396,-35.339,-8.789,-27.588
0.261,0.166,1.314,-25.208,-1.709,-30.029
0.276,0.090,1.227,-14.343,5.005,-33.325
0.254,-0.006,1.106,-6.348,11.414,-34.851
0.246,-0.076,1.001,-5.737,16.785,-34.119
0.297,-0.115,0.931,-7.385,17.578,-30.396
0.296,-0.180,0.889,-6.042,16.968,-27.588
0.320,-0.227,0.846,-7.446,19.104,-24.780
0.357,-0.258,0.794,-11.047,21.057,-20.447
0.378,-0.298,0.760,-11.536,21.240,-17.212
0.376,-0.328,0.746,-11.047,18.860,-13.855
0.389,-0.324,0.744,-12.451,16.907,-8.972
0.448,-0.314,0.771,-13.367,12.329,-3.784
0.474,-0.310,0.793,-10.925,7.568,-1.526
0.490,-0.291,0.792,-8.728,4.150,1.282
0.513,-0.256,0.809,-9.949,1.709,4.578
0.552,-0.241,0.858,-11.047,-0.671,6.531
0.585,-0.223,0.886,-10.132,-2.136,6.653
0.620,-0.208,0.878,-10.620,-0.305,6.165
0.632,-0.200,0.861,-13.123,3.296,4.883
0.624,-0.206,0.849,-14.099,5.066,3.540
0.615,-0.199,0.834,-14.038,4.272,3.357
0.615,-0.168,0.817,-13.062,1.160,3.845
0.591,-0.143,0.831,-11.902,-2.747,4.395
0.591,-0.137,0.903,-12.329,-6.226,5.432
0.607,-0.132,0.969,-10.925,-8.423,5.676
0.601,-0.113,0.989,-6.042,-7.751,3.906
0.589,-0.101,0.983,-1.831,-5.066,1.221
0.595,-0.100,0.953,-0.854,-0.854,-1.404
0.589,-0.109,0.894,-0.977,4.272,-4.028
0.559,-0.135,0.845,-1.587,8.057,-6.348
0.530,-0.159,0.833,-2.808,8.667,-6.958
0.522,-0.176,0.827,-2.197,6.775,-6.714
0.516,-0.183,0.813,-1.404,4.761,-6.042
0.529,-0.171,0.771,-1.831,5.371,-5.127
0.525,-0.163,0.739,-3.601,6.165,-5.066
0.501,-0.185,0.719,-5.127,5.188,-5.249
0.468,-0.194,0.724,-6.653,2.380,-3.601
0.462,-0.180,0.764,-7.812,-2.258,0.244
0.476,-0.165,0.829,-5.859,-7.446,3.906
0.483,-0.149,0.895,-2.686,-11.230,5.493
0.485,-0.133,0.940,-1.343,-11.169,6.104
0.502,-0.124,0.970,-1.221,-8.972,5.920
0.506,-0.112,0.981,0.244,-6.348,4.456
0.498,-0.117,0.961,1.099,-3.296,2.563
0.497,-0.120,0.932,-1.038,1.282,2.563
0.512,-0.104,0.893,-1.831,3.235,2.502
0.540,-0.090,0.850,-0.244,2.197,0.671
0.554,-0.082,0.798,-0.671,1.709,-1.404
0.567,-0.115,0.764,-5.615,3.906,-2.319
0.533,-0.133,0.792,-9.338,5.676,-1.343
0.494,-0.160,0.820,-8.545,4.150,0.793
0.486,-0.161,0.865,-6.226,0.916,3.113
0.484,-0.153,0.899,-3.784,-1.892,4.578
0.469,-0.148,0.916,-0.122,-3.357,5.066
0.472,-0.141,0.927,1.831,-3.723,6.042
0.490,-0.125,0.933,3.784,-3.967,5.981
0.511,-0.120,0.926,7.263,-3.174,5.188
0.511,-0.108,0.892,9.094,-0.488,3.357
0.516,-0.097,0.853,8.057,2.502,1.709
0.531,-0.110,0.826,6.470,3.723,0.183
0.541,-0.124,0.791,5.432,4.822,-1.038
0.546,-0.134,0.759,4.211,5.371,-2.197
0.544,-0.150,0.735,3.235,5.554,-2.319
0.524,-0.160,0.727,2.380,4.395,-2.380
0.513,-0.146,0.744,1.282,2.380,-1.099
0.507,-0.137,0.812,1.160,-1.282,-0.183
0.503,-0.146,0.887,2.258,-4.089,0.183
0.500,-0.147,0.941,2.747,-3.784,0.610
0.494,-0.139,0.961,3.967,-1.831,1.282
0.505,-0.136,0.951,5.798,-0.061,1.221
0.517,-0.133,0.914,7.141,1.892,0.610
0.520,-0.125,0.866,7.935,3.662,0.000
0.538,-0.138,0.838,7.080,4.395,-0.061
0.555,-0.150,0.802,5.981,4.822,-0.977
0.549,-0.153,0.758,5.249,5.493,-1.892
0.547,-0.169,0.737,3.357,5.615,-2.319
0.549,-0.198,0.743,0.488,4.883,-2.136
0.537,-0.209,0.757,-1.282,3.601,-1.465
0.526,-0.201,0.784,-0.916,1.465,-0.488
0.523,-0.187,0.827,0.244,-1.465,0.427
0.522,-0.178,0.872,1.404,-3.296,1.526
0.789,-0.950,-2.047,-108.215,-12.146,4.517
0.790,-0.926,-2.207,-135.742,-22.156,8.545
0.755,-0.922,-2.328,-164.734,-33.630,11.841
0.680,-0.884,-2.408,-195.251,-45.410,18.188
0.611,-0.761,-2.428,-229.370,-58.411,30.334
0.598,-0.649,-2.392,-261.658,-77.026,42.236
0.559,-0.536,-2.276,-284.851,-100.220,50.903
0.543,-0.380,-2.133,-301.453,-123.779,59.082
0.537,-0.212,-1.960,-315.552,-146.606,64.758
0.498,-0.059,-1.788,-324.463,-167.908,65.979
0.476,0.116,-1.594,-332.397,-186.035,67.139
0.453,0.283,-1.368,-338.684,-201.599,64.453
0.436,0.400,-1.117,-338.074,-215.942,56.946
0.370,0.505,-0.874,-336.914,-223.938,47.791
0.306,0.621,-0.670,-337.952,-224.487,40.100
0.195,0.768,-0.467,-341.064,-223.206,34.912
0.008,0.939,-0.141,-343.506,-223.694,30.762
-0.081,1.024,0.329,-345.154,-229.675,29.175
-0.122,1.108,0.940,-343.994,-237.488,25.635
-0.059,1.039,1.457,-327.942,-237.793,18.433
-0.060,0.981,1.845,-296.997,-221.191,5.249
-0.145,0.957,1.974,-271.790,-192.688,-4.639
-0.177,0.947,2.116,-261.902,-161.316,-10.559
-0.262,0.903,2.232,-251.770,-138.550,-14.832
-0.312,0.921,2.477,-237.549,-122.925,-16.113
-0.275,0.840,2.692,-212.280,-112.671,-19.775
-0.253,0.771,2.831,-173.584,-103.210,-23.315
-0.190,0.737,2.754,-133.484,-80.139,-27.893
-0.057,0.710,2.506,-104.858,-51.331,-32.471
0.021,0.670,2.125,-77.942,-25.635,-40.283
0.081,0.637,1.708,-57.678,-3.357,-45.898
0.149,0.632,1.331,-50.171,13.611,-47.729
0.178,0.539,0.937,-45.410,23.193,-47.363
0.208,0.480,0.723,-44.128,23.865,-44.983
0.254,0.402,0.636,-43.640,15.320,-39.551
0.286,0.357,0.641,-39.734,1.343,-34.119
0.295,0.337,0.689,-36.499,-10.498,-28.198
0.299,0.332,0.809,-38.818,-18.066,-22.217
0.290,0.291,0.961,-42.114,-20.325,-18.250
0.275,0.248,1.112,-44.434,-18.921,-15.930
0.292,0.217,1.241,-44.312,-14.709,-13.672
0.093,0.910,1.710,-40.649,-9.827,-18.799
0.470,0.033,1.765,-37.842,-12.085,-37.720
0.378,-0.276,1.536,-11.353,9.399,-33.325
0.305,0.069,1.039,-0.793,37.964,-11.780
0.437,0.181,0.661,5.981,37.537,-10.742
0.451,0.038,0.590,17.761,14.832,-17.761
0.521,-0.125,0.706,15.686,2.441,-20.081
0.552,-0.133,0.747,4.028,7.751,-15.686
0.493,-0.125,0.733,-3.479,14.221,-13.489
0.446,-0.198,0.763,-9.888,10.681,-12.329
0.460,-0.253,0.857,-14.221,1.404,-7.629
0.510,-0.255,0.965,-12.634,-5.554,-1.831
0.552,-0.229,1.019,-8.728,-7.080,0.183
0.550,-0.204,1.009,-5.005,-4.089,-0.488
0.557,-0.187,0.977,-2.686,-0.305,-1.587
0.564,-0.160,0.925,0.061,0.977,-3.174
0.598,-0.136,0.853,2.319,1.648,-4.333
0.611,-0.117,0.781,0.610,3.906,-5.920
0.580,-0.121,0.734,-4.578,7.996,-7.568
0.562,-0.151,0.746,-11.292,10.864,-8.179
0.532,-0.180,0.791,-15.137,9.949,-7.812
0.519,-0.190,0.802,-13.977,7.263,-7.446
0.508,-0.187,0.816,-12.756,3.113,-6.409
0.507,-0.182,0.867,-12.146,-1.404,-4.700
0.500,-0.176,0.924,-9.216,-4.700,-3.967
0.493,-0.160,0.945,-5.310,-6.287,-3.418
0.485,-0.119,0.942,-1.953,-6.531,-2.686
0.498,-0.088,0.920,0.488,-6.287,-2.380
0.505,-0.077,0.889,0.916,-5.066,-3.540
0.457,-0.072,0.834,-1.343,-1.587,-4.028
0.463,-0.090,0.845,-6.897,0.122,-2.380
0.476,-0.105,0.882,-7.385,-0.244,-1.709
0.475,-0.106,0.902,-2.258,-1.831,-2.075
0.484,-0.091,0.890,0.793,-2.380,-1.831
0.499,-0.069,0.848,0.854,-1.221,-1.648
0.491,-0.077,0.824,-0.854,1.343,-2.136
0.477,-0.094,0.820,-3.418,2.930,-2.136
0.464,-0.098,0.841,-5.249,2.319,-1.160
0.467,-0.093,0.870,-4.700,0.122,0.061
0.480,-0.089,0.912,-3.540,-1.892,1.282
0.500,-0.096,0.931,-3.296,-0.916,1.221
0.509,-0.098,0.908,-3.357,2.686,1.099
0.516,-0.108,0.857,-2.869,5.615,0.488
0.515,-0.116,0.809,-1.404,5.249,-0.244
0.519,-0.107,0.786,0.061,2.502,-0.061
0.526,-0.095,0.782,1.221,-0.671,0.000
0.524,-0.092,0.787,0.244,-1.831,-0.244
0.514,-0.097,0.799,-2.319,-1.038,-0.244
0.500,-0.104,0.816,-4.211,-0.427,-0.366
0.482,-0.100,0.835,-4.028,-0.854,-0.366
0.483,-0.096,0.858,-3.418,-2.014,-0.122
0.490,-0.101,0.888,-3.052,-2.747,-0.122
0.501,-0.082,0.894,-2.075,-2.258,0.061
0.500,-0.064,0.880,-0.671,-0.977,-0.244
0.518,-0.058,0.874,-0.122,0.061,-0.366
0.536,-0.054,0.860,-0.183,0.916,-0.916
0.536,-0.057,0.833,0.854,2.014,-2.014
0.524,-0.063,0.817,0.061,2.808,-2.625
0.520,-0.067,0.813,-2.625,3.052,-2.319
0.510,-0.068,0.843,-3.906,1.831,-1.831
0.504,-0.074,0.890,-3.113,-0.122,-1.465
0.504,-0.069,0.933,-1.282,-1.587,-1.099
0.498,-0.061,0.944,0.366,-1.404,-1.160
0.496,-0.065,0.938,1.282,-0.549,-1.221
0.501,-0.069,0.913,2.197,0.061,-1.160
0.507,-0.077,0.884,4.028,0.183,-1.465
0.506,-0.073,0.858,6.104,0.061,-1.892
0.512,-0.063,0.848,6.836,0.061,-2.075
0.522,-0.069,0.850,7.263,0.183,-2.930
0.510,-0.082,0.847,7.568,1.038,-4.089
0.506,-0.090,0.825,6.592,2.441,-4.272
0.505,-0.097,0.810,5.249,2.625,-3.662
0.507,-0.105,0.805,4.150,1.648,-2.930
0.519,-0.110,0.810,2.869,0.183,-1.770
0.524,-0.110,0.817,1.465,0.000,-1.465
0.514,-0.117,0.822,0.977,0.122,-1.648
0.509,-0.116,0.836,0.793,-0.366,-1.587
0.511,-0.106,0.857,1.160,-1.160,-1.526
0.935,-0.891,-2.082,-72.937,-18.860,4.517
0.932,-0.918,-2.298,-99.365,-24.231,4.028
0.965,-0.877,-2.452,-129.272,-20.752,-2.258
0.924,-0.832,-2.606,-161.987,-11.841,-9.888
0.869,-0.821,-2.725,-197.510,-5.493,-16.479
0.751,-0.781,-2.817,-230.469,-4.333,-19.714
0.617,-0.723,-2.924,-260.315,-9.399,-17.151
0.470,-0.601,-2.887,-289.490,-22.400,-8.972
0.388,-0.490,-2.813,-315.918,-39.917,0.854
0.315,-0.361,-2.695,-338.806,-58.350,13.611
0.267,-0.174,-2.550,-356.934,-77.759,27.832
0.207,-0.038,-2.376,-367.676,-99.182,38.635
0.130,0.155,-2.178,-374.084,-121.399,50.964
0.108,0.383,-1.941,-383.789,-145.874,65.430
0.096,0.628,-1.625,-389.587,-171.143,74.707
0.059,0.788,-1.240,-388.794,-194.641,76.172
0.066,0.926,-0.798,-383.423,-214.600,72.510
-0.007,1.024,-0.354,-374.207,-231.567,68.726
-0.040,1.161,0.154,-366.943,-242.126,67.200
0.017,1.222,0.710,-359.070,-249.695,62.866
0.032,1.243,1.301,-343.506,-250.366,51.941
0.119,1.154,1.601,-325.806,-230.286,37.842
0.120,1.115,1.718,-312.378,-195.435,23.987
0.047,1.137,1.771,-304.260,-157.715,12.146
-0.039,1.105,1.941,-298.706,-132.080,5.310
-0.089,0.954,2.202,-285.583,-121.460,-1.221
-0.063,0.833,2.522,-256.958,-116.699,-6.775
-0.026,0.736,2.628,-214.417,-105.896,-9.766
0.039,0.727,2.417,-173.645,-87.646,-11.414
0.069,0.842,2.261,-145.447,-64.453,-14.648
0.154,0.744,2.031,-120.972,-47.485,-22.644
0.150,0.691,1.759,-99.792,-31.128,-29.907
0.175,0.661,1.480,-87.402,-18.311,-30.334
0.240,0.619,1.232,-80.444,-12.024,-28.564
0.266,0.602,1.028,-72.388,-9.460,-26.855
0.282,0.543,0.893,-65.857,-10.010,-25.208
0.307,0.487,0.819,-63.660,-7.446,-23.987
0.276,0.425,0.864,-66.040,-6.531,-20.691
0.256,0.356,0.956,-66.895,-8.118,-16.479
0.230,0.303,1.069,-62.927,-11.230,-11.536
0.214,0.258,1.185,-56.885,-14.221,-7.019
0.220,0.215,1.294,-50.171,-15.869,-2.808
0.280,0.185,1.346,-41.992,-14.771,0.732
0.321,0.162,1.313,-31.494,-9.094,1.038
0.347,0.131,1.214,-22.400,-1.465,0.000
0.380,0.080,1.117,-17.578,5.737,-1.038
0.395,0.013,1.056,-13.245,9.827,-2.075
0.420,-0.066,0.986,-7.629,10.864,-2.869
0.446,-0.095,0.888,-4.578,11.353,-1.465
0.484,-0.089,0.802,-4.578,10.986,1.221
0.531,-0.124,0.767,-5.371,9.644,2.258
0.552,-0.157,0.720,-6.104,10.681,2.075
0.551,-0.176,0.665,-8.484,13.062,1.953
0.570,-0.204,0.665,-9.827,11.353,2.136
0.575,-0.235,0.724,-7.507,5.920,1.343
0.558,-0.249,0.806,-5.310,1.892,1.099
0.579,-0.256,0.901,-6.897,0.977,2.258
0.603,-0.255,0.943,-5.554,1.404,2.014
0.592,-0.238,0.910,-0.854,2.686,0.671
0.598,-0.230,0.837,0.977,4.150,-0.488
0.622,-0.230,0.766,0.793,4.333,-0.977
0.639,-0.229,0.706,1.099,4.639,-2.319
0.625,-0.233,0.677,0.732,5.005,-4.150
0.617,-0.251,0.675,-1.282,4.700,-5.493
0.601,-0.254,0.708,-5.127,4.578,-5.188
0.594,-0.250,0.783,-8.972,4.578,-4.028
0.588,-0.259,0.872,-11.169,4.395,-3.052
0.582,-0.251,0.910,-11.169,4.639,-1.343
0.586,-0.230,0.904,-10.254,4.822,0.122
0.589,-0.206,0.881,-7.080,3.906,0.488
0.597,-0.182,0.861,-3.479,1.648,0.671
0.612,-0.162,0.841,-1.892,-0.549,0.183
0.619,-0.142,0.816,-1.770,-0.488,-0.671
0.623,-0.132,0.786,-2.686,0.427,-1.831
0.613,-0.132,0.754,-4.944,1.953,-2.869
0.607,-0.130,0.753,-7.874,2.808,-3.845
0.596,-0.152,0.757,-9.766,3.418,-4.517
0.580,-0.190,0.781,-11.292,3.723,-5.127
0.554,-0.205,0.800,-10.498,2.991,-4.822
0.521,-0.197,0.812,-7.751,0.061,-3.540
0.504,-0.192,0.855,-5.188,-3.662,-1.709
0.500,-0.188,0.906,-3.235,-6.348,0.549
0.519,-0.175,0.936,-0.793,-7.080,2.502
0.535,-0.156,0.926,2.319,-5.676,2.197
0.545,-0.142,0.883,4.333,-2.014,0.549
0.557,-0.145,0.831,3.357,2.808,-0.916
0.563,-0.153,0.775,1.404,6.653,-1.709
0.565,-0.169,0.725,0.305,7.996,-2.319
0.550,-0.197,0.691,-0.916,7.507,-1.831
0.543,-0.203,0.695,-2.563,4.700,0.305
0.531,-0.198,0.729,-3.418,1.282,2.625
0.536,-0.194,0.796,-3.357,-1.953,4.272
0.551,-0.194,0.862,-3.174,-3.357,5.432
0.557,-0.173,0.877,-1.770,-2.258,5.615
0.563,-0.162,0.867,-0.305,-1.038,5.737
0.574,-0.161,0.853,0.793,-0.305,5.188
0.579,-0.153,0.836,2.014,0.183,4.883
0.584,-0.136,0.832,3.601,-0.183,4.700
0.607,-0.122,0.827,4.700,-0.854,4.028
0.619,-0.116,0.806,5.249,0.305,2.563
0.616,-0.125,0.787,4.272,2.991,1.160
0.611,-0.144,0.780,2.136,4.883,-0.122
0.607,-0.150,0.783,1.160,5.127,-0.854
0.612,-0.174,0.795,1.892,4.089,-1.892
0.606,-0.194,0.789,3.174,3.479,-2.808
0.596,-0.196,0.770,4.333,3.235,-3.174
0.594,-0.201,0.757,5.127,2.441,-3.174
0.581,-0.199,0.746,5.859,1.587,-3.174
0.579,-0.190,0.753,5.005,0.977,-2.441
0.583,-0.192,0.760,3.967,0.671,-2.075
0.579,-0.180,0.764,3.540,0.732,-1.831
0.569,-0.177,0.773,2.625,0.427,-2.075
0.570,-0.172,0.787,0.854,0.549,-1.282
0.577,-0.164,0.812,-0.916,0.244,-0.854
0.577,-0.162,0.820,-0.671,0.732,-1.038
0.575,-0.170,0.817,-0.854,1.587,-1.465
0.578,-0.173,0.818,-1.953,2.930,-1.282
0.578,-0.177,0.816,-0.854,2.380,-1.526
0.580,-0.186,0.810,1.892,0.732,-1.343
0.656,-0.873,-2.349,-72.144,-17.334,9.827
0.663,-0.906,-2.545,-95.581,-24.231,11.230
0.645,-0.884,-2.719,-122.131,-26.306,9.583
0.623,-0.826,-2.846,-151.794,-30.579,10.437
0.590,-0.759,-2.942,-184.875,-32.654,10.437
0.549,-0.683,-3.039,-219.666,-34.241,10.620
0.498,-0.532,-3.106,-253.845,-37.354,12.024
0.448,-0.369,-3.171,-286.438,-45.044,15.198
0.357,-0.136,-3.106,-315.674,-60.120,20.142
0.270,0.011,-2.997,-337.769,-78.857,22.766
0.174,0.171,-2.813,-353.455,-100.525,28.076
0.109,0.389,-2.625,-370.544,-121.033,37.415
0.051,0.565,-2.418,-388.184,-141.174,48.462
-0.034,0.765,-2.128,-403.381,-162.964,60.547
-0.086,0.924,-1.729,-414.978,-189.209,73.547
-0.097,1.050,-1.273,-419.556,-217.346,83.557
-0.121,1.200,-0.819,-415.222,-238.403,86.731
-0.151,1.314,-0.339,-407.043,-246.704,81.299
-0.199,1.338,0.176,-402.100,-247.131,75.317
-0.152,1.327,0.698,-399.414,-241.211,70.313
-0.111,1.278,1.152,-388.977,-228.882,61.951
-0.046,1.201,1.400,-365.784,-208.984,51.819
0.006,1.170,1.409,-339.600,-185.181,42.053
0.013,1.224,1.364,-320.068,-164.490,34.302
0.009,1.205,1.364,-306.580,-147.888,26.978
-0.016,1.134,1.495,-298.828,-134.094,20.752
-0.028,1.017,1.634,-288.940,-122.864,15.564
0.001,0.976,1.768,-272.339,-110.657,11.658
0.051,0.941,1.846,-250.366,-103.699,9.094
0.084,0.939,1.936,-221.558,-101.257,4.272
0.121,0.949,1.999,-189.270,-93.994,-2.686
0.189,0.937,2.099,-166.931,-81.787,-9.399
0.251,0.928,1.995,-151.367,-60.669,-15.564
0.235,0.907,1.895,-139.648,-39.185,-21.118
0.193,0.780,1.828,-127.747,-26.428,-27.039
0.196,0.706,1.733,-115.723,-18.372,-26.611
0.183,0.695,1.685,-98.999,-17.273,-24.353
0.223,0.654,1.674,-78.735,-21.057,-22.705
0.309,0.619,1.656,-62.256,-22.461,-22.156
0.370,0.582,1.562,-44.678,-16.907,-24.658
0.405,0.511,1.431,-31.128,-7.507,-28.809
0.447,0.441,1.283,-26.306,3.601,-31.982
0.467,0.376,1.156,-23.682,13.550,-34.302
0.018,1.771,1.270,-23.682,18.677,-37.720
1.115,0.227,1.525,-41.260,19.104,-60.242
0.338,-0.397,1.545,-10.742,35.400,-66.223
0.241,-0.097,1.006,-10.010,58.411,-33.386
0.425,0.086,0.639,-9.766,45.593,-18.372
0.361,0.048,0.673,25.085,8.850,-20.203
0.449,-0.146,0.800,32.654,-12.817,-24.292
0.484,-0.213,0.835,19.592,-5.554,-20.386
0.464,-0.215,0.799,8.667,8.484,-15.564
0.436,-0.290,0.748,6.409,12.878,-15.442
0.437,-0.326,0.735,7.385,9.033,-12.390
0.471,-0.310,0.750,7.202,5.554,-7.996
0.489,-0.311,0.798,7.385,3.357,-5.737
0.510,-0.308,0.830,6.348,3.418,-3.784
0.534,-0.296,0.824,4.639,5.737,-2.380
0.536,-0.302,0.801,4.700,8.057,-2.380
0.533,-0.300,0.783,5.127,7.935,-1.465
0.552,-0.293,0.776,4.150,5.798,0.977
0.581,-0.274,0.783,3.174,4.028,3.296
0.610,-0.247,0.772,2.136,3.723,4.822
0.633,-0.230,0.738,0.671,4.578,5.249
0.634,-0.211,0.713,-1.404,5.127,5.310
0.639,-0.205,0.729,-3.235,3.357,5.249
0.645,-0.206,0.766,-3.784,0.854,5.127
0.655,-0.188,0.782,-3.174,-0.793,5.066
0.656,-0.181,0.788,-2.014,-1.160,3.967
0.653,-0.183,0.803,-0.793,-0.854,2.625
0.661,-0.187,0.813,0.244,0.183,1.221
0.650,-0.199,0.796,1.709,2.747,-1.038
0.626,-0.202,0.768,1.648,5.432,-2.930
0.608,-0.209,0.780,0.183,5.676,-3.357
0.623,-0.220,0.805,0.793,3.235,-3.479
0.622,-0.211,0.802,2.563,2.136,-4.211
0.597,-0.208,0.782,1.770,3.052,-4.211
0.589,-0.216,0.773,-0.977,3.906,-3.479
0.579,-0.216,0.784,-1.587,3.113,-2.808
0.575,-0.216,0.794,0.488,1.221,-2.502
0.571,-0.212,0.811,1.648,0.122,-2.197
0.574,-0.211,0.818,1.221,1.038,-1.770
0.562,-0.213,0.806,0.916,2.869,-1.404
0.549,-0.226,0.792,0.671,3.784,-1.282
0.545,-0.222,0.779,0.183,3.601,-0.061
0.554,-0.203,0.776,1.343,1.404,1.221
0.561,-0.207,0.781,2.319,-0.305,1.648
0.576,-0.203,0.790,1.343,0.183,1.953
0.588,-0.198,0.771,0.122,2.625,2.441
0.599,-0.206,0.741,-0.488,4.578,1.831
0.597,-0.216,0.712,-0.671,5.005,0.854
0.582,-0.218,0.709,-0.977,3.540,0.916
0.589,-0.218,0.750,-2.136,0.366,1.831
0.597,-0.223,0.799,-1.526,-2.502,2.380
0.594,-0.219,0.826,0.061,-3.540,2.869
0.585,-0.200,0.824,0.244,-2.686,3.296
0.590,-0.178,0.830,0.122,-2.563,3.784
0.608,-0.174,0.837,0.305,-2.502,3.113
0.601,-0.184,0.820,1.160,-0.854,1.587
0.595,-0.183,0.802,0.000,1.648,1.282
0.614,-0.184,0.776,-0.977,3.174,1.099
0.613,-0.196,0.751,0.671,3.662,-0.671
0.595,-0.211,0.734,1.770,4.089,-2.014
0.601,-0.209,0.733,0.854,3.601,-1.648
0.610,-0.223,0.744,1.160,1.526,-1.770
0.608,-0.223,0.741,1.465,0.610,-2.075
0.603,-0.204,0.740,-0.549,0.977,-0.854
0.602,-0.207,0.768,-2.686,0.610,-0.183
0.597,-0.221,0.808,-2.808,-0.305,-0.305
0.598,-0.222,0.825,-1.770,-0.793,-0.183
0.603,-0.214,0.813,-0.671,-0.488,0.000
0.599,-0.210,0.802,0.427,-0.488,-0.427
0.600,-0.218,0.810,1.099,-1.160,-0.610
0.588,-0.215,0.827,1.953,-1.770,-0.488
0.585,-0.211,0.851,3.296,-2.441,-0.061
0.595,-0.198,0.864,4.150,-2.625,-0.244
0.606,-0.186,0.837,5.188,-0.549,-1.343
0.601,-0.175,0.787,4.211,3.296,-2.991
0.592,-0.193,0.738,1.526,6.775,-3.784
0.708,-0.897,-2.220,-87.280,24.841,-7.141
0.664,-0.940,-2.365,-114.319,24.780,-7.507
0.606,-0.986,-2.499,-138.794,21.240,-6.714
0.570,-0.992,-2.638,-162.598,12.146,-1.587
0.517,-0.914,-2.721,-184.692,-2.441,7.385
0.520,-0.823,-2.755,-204.651,-22.095,15.869
0.492,-0.679,-2.722,-222.839,-44.861,24.414
0.493,-0.544,-2.645,-243.103,-62.927,29.236
0.492,-0.363,-2.572,-265.930,-74.829,34.363
0.500,-0.160,-2.500,-290.466,-83.374,39.063
0.497,0.033,-2.415,-312.073,-92.590,40.466
0.466,0.194,-2.340,-331.055,-102.722,40.955
0.425,0.354,-2.218,-350.586,-113.464,42.542
0.368,0.528,-2.057,-367.065,-126.892,43.518
0.288,0.656,-1.872,-375.610,-144.958,42.664
0.179,0.740,-1.623,-380.493,-166.138,42.664
0.094,0.853,-1.365,-386.597,-186.279,46.265
0.035,1.006,-1.083,-390.442,-205.627,49.622
-0.030,1.162,-0.798,-388.794,-221.924,48.401
-0.094,1.301,-0.443,-385.437,-232.727,43.640
-0.209,1.456,0.018,-384.888,-235.962,35.889
-0.302,1.551,0.606,-388.184,-231.873,28.748
-0.337,1.447,1.328,-392.151,-227.051,22.522
-0.344,1.226,1.984,-381.226,-213.501,16.418
-0.413,1.032,2.436,-356.812,-188.721,13.245
-0.476,1.000,2.739,-330.627,-160.217,14.282
-0.468,0.964,3.075,-301.453,-137.451,14.282
-0.419,0.807,3.254,-261.047,-122.437,10.864
-0.339,0.832,3.263,-215.027,-102.417,10.132
-0.206,0.905,3.038,-172.180,-74.463,6.226
-0.053,0.886,2.579,-131.287,-41.687,-3.357
0.103,0.898,1.988,-102.905,-10.864,-10.986
0.243,0.876,1.339,-87.952,12.695,-14.832
0.338,0.878,0.834,-84.961,23.743,-15.930
0.354,0.868,0.484,-86.975,21.606,-15.991
0.342,0.829,0.444,-91.675,7.202,-13.550
0.388,0.720,0.704,-96.252,-13.000,-9.033
0.389,0.651,1.014,-93.811,-27.283,-6.287
0.376,0.553,1.280,-86.365,-33.569,-6.409
0.371,0.449,1.474,-78.247,-33.569,-6.592
0.360,0.397,1.579,-69.031,-28.015,-7.202
0.324,0.349,1.652,-57.190,-20.569,-8.667
0.338,0.272,1.691,-46.143,-14.221,-9.338
0.368,0.195,1.642,-34.790,-5.554,-10.925
0.389,0.118,1.511,-22.644,5.310,-12.817
0.430,0.063,1.310,-11.414,14.343,-13.916
0.455,0.009,1.037,-1.526,20.020,-15.442
0.454,-0.070,0.818,3.174,22.461,-15.747
0.469,-0.166,0.683,2.075,20.447,-13.184
0.467,-0.229,0.610,-0.122,15.015,-8.972
0.433,-0.286,0.620,-2.319,8.423,-4.395
0.433,-0.338,0.707,-7.996,4.028,2.502
0.468,-0.365,0.787,-11.658,0.183,9.094
0.481,-0.368,0.819,-8.179,-2.563,12.268
0.499,-0.356,0.831,-4.700,-4.272,14.954
0.541,-0.313,0.843,-4.150,-4.395,17.578
0.582,-0.284,0.865,-2.930,-3.784,18.066
0.618,-0.270,0.867,-2.136,-0.854,17.212
0.637,-0.240,0.831,-4.150,4.517,15.442
0.633,-0.215,0.769,-6.042,8.484,13.428
0.646,-0.181,0.721,-8.667,8.545,11.719
0.660,-0.166,0.723,-12.268,7.324,10.315
0.647,-0.172,0.770,-15.137,6.104,8.545
0.640,-0.173,0.816,-16.663,5.981,7.568
0.628,-0.165,0.820,-15.991,5.737,6.348
0.615,-0.159,0.824,-14.160,5.005,5.554
0.601,-0.154,0.859,-12.939,4.211,4.822
0.607,-0.148,0.895,-10.498,3.113,3.845
0.603,-0.121,0.908,-7.263,3.296,2.136
0.592,-0.116,0.916,-5.615,5.554,0.061
0.592,-0.131,0.907,-5.066,9.033,-2.258
0.574,-0.135,0.845,-3.540,13.367,-4.150
0.547,-0.154,0.781,-2.502,15.503,-5.066
0.523,-0.171,0.739,-1.648,13.916,-4.333
0.513,-0.178,0.759,0.061,7.263,-2.258
0.520,-0.175,0.815,3.052,-0.427,0.610
0.534,-0.161,0.853,5.371,-4.883,2.686
0.552,-0.135,0.884,5.127,-5.188,3.906
0.575,-0.130,0.878,4.211,-2.136,4.150
0.582,-0.124,0.844,1.831,2.747,4.150
0.605,-0.098,0.785,0.000,6.042,4.150
0.620,-0.094,0.751,0.000,6.836,2.686
0.622,-0.096,0.735,-0.366,7.019,1.587
0.623,-0.106,0.745,-3.174,6.531,1.648
0.627,-0.133,0.761,-4.761,6.287,0.305
0.606,-0.160,0.768,-5.310,5.920,0.122
0.591,-0.168,0.785,-7.080,4.333,1.404
0.590,-0.171,0.840,-5.859,-0.122,2.808
0.588,-0.166,0.905,-1.953,-4.395,3.296
0.594,-0.144,0.924,1.648,-5.249,2.808
0.607,-0.133,0.912,2.686,-2.563,0.916
0.605,-0.140,0.868,2.625,2.380,-1.526
0.592,-0.156,0.804,1.465,7.202,-3.662
0.589,-0.165,0.744,-0.732,9.705,-4.272
0.588,-0.165,0.715,-2.686,9.705,-4.028
0.576,-0.177,0.717,-3.418,7.935,-4.028
0.560,-0.175,0.740,-3.052,4.578,-3.296
0.561,-0.171,0.774,-2.686,1.587,-2.075
0.558,-0.171,0.809,-1.709,-0.183,-1.831
0.548,-0.161,0.827,-0.183,-0.916,-0.854
0.567,-0.158,0.827,0.793,-1.587,0.549
0.580,-0.154,0.818,1.892,-2.075,1.160
0.576,-0.148,0.813,3.174,-2.380,1.038
0.575,-0.155,0.833,3.174,-3.418,1.404
0.585,-0.139,0.852,3.906,-4.822,2.258
0.591,-0.120,0.865,6.226,-5.676,2.258
0.598,-0.106,0.877,7.568,-5.127,1.587
0.611,-0.092,0.863,7.507,-2.930,0.122
0.614,-0.103,0.815,7.263,1.526,-2.380
0.612,-0.108,0.744,6.348,5.188,-4.639
0.611,-0.120,0.689,3.906,7.019,-6.104
0.608,-0.144,0.687,1.282,6.775,-6.653
0.570,-0.169,0.697,-0.671,3.540,-4.944
0.565,-0.170,0.755,-1.343,-0.488,-3.723
0.564,-0.182,0.806,-0.854,-3.784,-2.136
0.554,-0.173,0.833,-0.061,-5.371,-0.427
0.547,-0.156,0.846,0.732,-5.737,0.549
0.563,-0.153,0.868,1.526,-5.859,0.549
0.559,-0.155,0.860,4.761,-5.432,-0.793
0.857,-0.785,-2.387,-116.272,15.686,-3.357
0.845,-0.806,-2.594,-146.667,19.897,-7.385
0.789,-0.798,-2.831,-177.368,22.583,-10.559
0.717,-0.743,-3.003,-209.473,18.005,-10.559
0.611,-0.653,-3.123,-239.319,7.996,-8.972
0.479,-0.529,-3.113,-267.212,-5.371,-5.615
0.357,-0.428,-3.077,-292.786,-22.339,0.732
0.278,-0.309,-2.951,-316.589,-41.626,11.292
0.225,-0.128,-2.757,-334.473,-63.965,23.743
0.203,0.067,-2.603,-345.581,-87.219,35.095
0.173,0.281,-2.387,-354.309,-111.145,45.105
0.161,0.508,-2.176,-363.220,-133.728,54.810
0.167,0.727,-1.928,-373.962,-156.616,65.063
0.208,0.915,-1.620,-382.446,-179.321,70.679
0.254,1.073,-1.303,-384.338,-197.998,70.618
0.244,1.275,-1.002,-383.057,-206.909,63.232
0.217,1.388,-0.704,-383.057,-210.449,53.894
0.168,1.469,-0.343,-387.146,-211.487,46.814
0.156,1.522,0.157,-393.066,-212.524,41.443
0.115,1.499,0.689,-393.677,-210.327,34.729
0.044,1.443,1.250,-390.747,-198.730,28.076
-0.010,1.333,1.819,-387.573,-184.387,24.902
-0.040,1.184,2.288,-376.404,-171.631,23.499
-0.048,1.089,2.672,-348.572,-157.288,22.949
0.032,0.998,2.888,-308.167,-143.921,20.081
0.124,0.953,2.927,-262.573,-124.939,12.756
0.105,0.917,2.742,-221.680,-94.543,2.197
0.122,0.829,2.463,-198.120,-61.462,-4.822
0.183,0.780,2.070,-178.589,-36.255,-8.850
0.242,0.758,1.604,-151.123,-22.278,-12.451
0.262,0.788,1.243,-128.967,-17.822,-11.658
0.328,0.782,0.914,-116.943,-14.709,-11.841
0.309,0.792,0.723,-112.671,-14.587,-10.315
0.288,0.766,0.762,-114.197,-21.179,-7.446
0.287,0.654,0.972,-112.305,-34.485,-4.578
0.282,0.606,1.215,-104.553,-42.847,-0.244
0.280,0.561,1.413,-97.290,-42.358,2.563
0.278,0.501,1.537,-87.646,-36.804,2.930
0.294,0.444,1.599,-75.867,-28.198,1.770
0.312,0.401,1.595,-62.805,-18.066,-0.977
0.359,0.343,1.531,-49.377,-7.874,-4.639
0.401,0.288,1.396,-35.583,1.953,-8.789
0.452,0.247,1.200,-24.963,12.695,-12.878
0.482,0.184,1.013,-19.836,21.423,-17.029
0.503,0.115,0.872,-16.541,25.940,-20.264
0.510,-0.002,0.729,-13.062,25.696,-21.545
0.514,-0.066,0.683,-11.597,21.423,-19.897
0.525,-0.108,0.715,-11.292,16.296,-16.052
0.540,-0.166,0.786,-9.949,10.437,-13.306
0.542,-0.201,0.864,-7.446,6.348,-10.925
0.559,-0.215,0.885,-4.578,5.310,-8.667
0.564,-0.208,0.875,-1.587,6.287,-7.812
0.565,-0.209,0.862,2.014,6.470,-7.812
0.592,-0.204,0.864,5.554,6.042,-7.385
0.629,-0.189,0.827,9.277,6.653,-7.935
0.659,-0.159,0.755,10.803,10.010,-9.399
0.689,-0.162,0.645,7.202,16.235,-10.803
0.659,-0.190,0.586,0.061,20.691,-10.559
0.653,-0.235,0.549,-7.141,23.254,-10.681
0.597,-0.243,0.629,-14.465,20.691,-7.202
0.606,-0.264,0.755,-19.897,12.268,-1.709
0.620,-0.252,0.857,-18.005,4.150,3.296
0.636,-0.200,0.906,-14.404,0.549,7.202
0.665,-0.174,0.924,-12.024,1.038,8.301
0.672,-0.187,0.915,-7.935,2.136,6.287
0.666,-0.192,0.870,-2.563,2.991,4.761
0.682,-0.161,0.840,0.977,2.747,4.944
0.720,-0.155,0.819,4.822,0.854,4.272
0.738,-0.143,0.781,9.155,-0.061,2.136
0.743,-0.133,0.722,9.277,2.380,0.488
0.733,-0.134,0.670,4.700,6.165,-1.282
0.707,-0.144,0.650,0.122,7.690,-1.709
0.687,-0.165,0.673,-2.197,5.310,-1.709
0.673,-0.192,0.742,-2.502,0.732,-1.038
0.667,-0.205,0.791,-1.831,-1.099,-0.427
0.664,-0.198,0.796,-1.648,-0.305,0.000
0.639,-0.183,0.778,-1.282,0.916,-0.122
0.623,-0.188,0.790,-0.183,-0.244,0.122
0.624,-0.177,0.824,2.625,-3.540,0.610
0.636,-0.153,0.835,6.042,-5.066,0.977
0.649,-0.136,0.796,7.202,-3.174,0.183
0.665,-0.136,0.732,6.348,0.793,-1.404
0.654,-0.152,0.656,4.761,4.944,-3.479
0.637,-0.173,0.604,1.892,7.141,-3.845
0.626,-0.194,0.583,-1.221,5.981,-2.869
0.627,-0.209,0.597,-3.479,2.258,-0.977
0.613,-0.200,0.633,-4.822,-1.709,1.221
0.608,-0.188,0.703,-5.432,-5.005,3.113
0.618,-0.177,0.778,-5.737,-6.897,4.028
0.611,-0.171,0.842,-4.456,-6.531,3.174
0.603,-0.177,0.887,-3.296,-5.127,2.136
0.601,-0.173,0.901,-2.258,-2.991,1.770
0.610,-0.163,0.900,-0.793,-0.671,1.526
0.618,-0.151,0.872,1.648,1.221,0.854
0.635,-0.134,0.827,3.723,2.502,0.183
0.647,-0.124,0.770,4.761,4.333,-0.610
0.650,-0.121,0.721,3.540,6.165,-1.099
0.653,-0.135,0.686,1.831,7.080,-1.648
0.654,-0.162,0.663,1.526,6.165,-2.075
0.654,-0.181,0.631,1.160,4.272,-1.404
0.647,-0.182,0.626,-0.427,2.136,-0.366
0.656,-0.174,0.656,-1.465,-0.610,0.732
0.654,-0.176,0.717,-1.770,-2.197,0.671
0.635,-0.177,0.777,-2.136,-2.014,0.549
0.626,-0.169,0.822,-2.258,-1.587,0.671
0.627,-0.167,0.852,-0.854,-1.587,0.549
0.627,-0.160,0.871,1.160,-1.038,0.183
0.628,-0.159,0.880,3.174,0.366,-0.061
0.635,-0.158,0.864,4.822,1.831,0.183
0.635,-0.156,0.830,6.775,3.052,0.061
0.649,-0.145,0.780,8.850,3.235,0.244
0.664,-0.142,0.732,10.376,2.991,-0.305
0.665,-0.142,0.677,11.353,2.625,-1.099
0.674,-0.135,0.621,9.644,2.747,-1.221
0.671,-0.150,0.583,6.104,2.747,-1.160
0.651,-0.171,0.608,2.014,1.770,-0.793
0.647,-0.194,0.674,-1.160,-0.549,0.366
0.647,-0.208,0.750,-1.953,-2.686,1.343
0.647,-0.204,0.790,-0.366,-3.357,1.465
0.663,-0.867,-2.407,-110.046,12.146,9.766
0.647,-0.840,-2.587,-134.644,9.888,12.939
0.616,-0.788,-2.752,-160.400,3.845,18.311
0.607,-0.687,-2.889,-189.209,-0.366,22.583
0.584,-0.538,-3.009,-220.947,-3.967,25.940
0.536,-0.408,-3.076,-253.418,-12.024,27.832
0.460,-0.229,-2.998,-281.128,-26.245,29.175
0.387,-0.125,-2.863,-305.603,-44.617,32.043
0.332,-0.005,-2.660,-328.552,-64.209,38.391
0.276,0.140,-2.433,-347.168,-83.313,46.509
0.212,0.286,-2.212,-360.413,-102.661,55.420
0.185,0.467,-1.972,-373.596,-123.596,66.711
0.189,0.640,-1.696,-383.423,-145.691,74.524
0.167,0.763,-1.391,-384.583,-169.861,77.637
0.178,0.893,-1.064,-383.118,-189.697,76.782
0.185,1.043,-0.758,-383.362,-203.491,76.660
0.216,1.183,-0.483,-383.484,-210.571,71.533
0.199,1.250,-0.242,-380.493,-210.876,60.242
0.182,1.281,-0.034,-379.944,-204.712,50.415
0.150,1.309,0.214,-379.578,-197.754,41.809
0.061,1.278,0.475,-374.451,-192.017,33.020
0.004,1.265,0.778,-373.230,-185.181,28.870
-0.021,1.205,1.099,-373.230,-178.955,26.611
-0.028,1.167,1.403,-362.671,-171.448,25.085
-0.063,1.121,1.681,-344.910,-164.124,20.569
-0.158,1.080,1.950,-323.486,-153.809,15.869
-0.194,1.027,2.363,-305.237,-143.982,13.000
-0.148,0.835,2.745,-280.457,-135.620,9.155
-0.137,0.786,2.885,-245.422,-117.859,7.812
-0.072,0.768,2.873,-208.801,-93.567,5.249
-0.021,0.730,2.727,-169.495,-72.388,0.000
-0.012,0.694,2.452,-132.385,-52.795,-5.981
0.046,0.672,2.202,-106.445,-36.621,-7.263
0.155,0.677,1.982,-87.158,-23.804,-7.385
0.254,0.656,1.747,-66.040,-12.878,-10.071
0.312,0.575,1.469,-47.241,-2.136,-14.099
0.362,0.531,1.211,-37.842,12.329,-17.578
0.383,0.497,0.971,-34.668,24.658,-19.104
0.418,0.440,0.778,-33.508,29.663,-20.020
0.425,0.388,0.672,-32.654,26.001,-18.799
0.444,0.330,0.674,-32.043,16.663,-15.930
0.461,0.251,0.781,-31.189,4.333,-12.939
0.479,0.194,0.925,-28.015,-5.249,-9.888
0.476,0.146,1.062,-22.583,-9.827,-8.057
0.460,0.093,1.169,-16.052,-11.475,-7.202
0.466,0.061,1.235,-10.193,-11.047,-5.737
0.493,0.040,1.269,-4.822,-8.362,-4.333
0.513,0.010,1.280,1.282,-4.150,-4.944
0.532,-0.020,1.241,7.812,2.258,-6.226
0.549,-0.064,1.148,12.756,10.498,-7.324
0.562,-0.098,1.013,16.724,17.700,-8.667
0.578,-0.110,0.922,21.240,20.935,-10.254
0.596,-0.202,0.784,25.085,19.470,-10.742
0.586,-0.216,0.709,25.940,18.250,-10.071
0.596,-0.226,0.635,23.315,16.907,-7.751
0.592,-0.237,0.593,19.348,14.587,-6.104
0.590,-0.266,0.600,16.174,9.216,-3.357
0.599,-0.293,0.633,13.977,2.869,-0.183
0.619,-0.292,0.669,13.550,-2.319,2.869
0.648,-0.284,0.707,14.465,-5.432,4.028
0.667,-0.276,0.734,15.625,-5.981,3.662
0.675,-0.257,0.731,14.709,-3.601,2.869
0.676,-0.245,0.733,11.902,-0.366,2.136
0.684,-0.245,0.740,10.376,0.854,1.282
0.701,-0.245,0.759,11.169,-0.061,0.671
0.703,-0.237,0.767,12.024,0.244,-0.244
0.692,-0.239,0.764,11.292,1.465,-0.671
0.687,-0.245,0.759,9.338,2.319,-0.793
0.676,-0.256,0.769,9.216,0.427,-0.916
0.664,-0.269,0.779,12.024,-2.808,-1.160
0.651,-0.267,0.797,13.977,-5.432,-0.488
0.667,-0.271,0.806,14.587,-6.531,-0.122
0.676,-0.276,0.806,15.320,-6.470,-0.916
0.674,-0.276,0.784,16.235,-5.249,-2.075
0.663,-0.276,0.746,15.259,-2.808,-3.235
0.658,-0.274,0.708,13.245,-0.916,-3.601
0.648,-0.277,0.698,12.146,-1.282,-3.967
0.636,-0.298,0.704,12.268,-3.357,-4.333
0.621,-0.299,0.718,11.841,-4.700,-3.601
0.614,-0.281,0.714,11.108,-4.822,-2.380
0.604,-0.285,0.704,10.437,-5.066,-1.892
0.592,-0.296,0.716,9.766,-6.226,-1.709
0.583,-0.299,0.733,10.071,-7.568,-0.549
0.590,-0.301,0.757,10.376,-8.911,0.244
0.586,-0.305,0.764,10.437,-8.118,0.488
0.575,-0.316,0.757,9.399,-6.165,1.038
0.566,-0.317,0.740,7.446,-4.761,2.075
0.569,-0.302,0.739,6.836,-5.432,3.540
0.581,-0.293,0.763,8.728,-8.057,4.211
0.596,-0.288,0.779,10.315,-9.583,4.028
0.603,-0.274,0.778,9.949,-7.690,3.784
0.597,-0.265,0.754,7.629,-4.089,3.540
0.588,-0.260,0.733,5.066,-1.709,3.113
0.581,-0.263,0.720,3.662,-1.526,2.258
0.571,-0.275,0.737,2.869,-3.052,2.319
0.574,-0.282,0.772,1.465,-4.761,3.540
0.579,-0.286,0.809,2.136,-6.226,4.272
0.579,-0.280,0.826,4.822,-7.568,4.395
0.585,-0.262,0.824,6.775,-7.935,4.517
0.586,-0.248,0.815,8.362,-7.751,3.967
0.587,-0.236,0.821,9.888,-8.118,3.296
0.598,-0.237,0.828,10.681,-7.568,2.197
0.596,-0.238,0.822,10.620,-5.127,0.610
0.576,-0.240,0.806,10.193,-2.136,-0.977
0.567,-0.252,0.791,8.545,0.122,-2.136
0.568,-0.265,0.780,7.019,1.038,-2.930
0.565,-0.265,0.757,7.141,2.319,-3.357
0.556,-0.267,0.724,7.141,3.784,-4.028
0.541,-0.270,0.691,6.165,4.639,-4.395
0.532,-0.281,0.672,4.028,4.150,-4.150
0.526,-0.299,0.682,2.319,1.953,-3.784
0.525,-0.306,0.703,1.770,-0.732,-3.296
0.526,-0.300,0.727,2.014,-2.686,-2.991
0.531,-0.293,0.743,1.770,-2.869,-3.235
0.530,-0.301,0.745,0.793,-1.404,-3.418
0.533,-0.297,0.743,-0.916,0.244,-2.930
0.538,-0.290,0.744,-1.404,0.366,-3.113
0.540,-0.289,0.746,-0.183,-1.038,-3.784
0.543,-0.281,0.760,0.244,-2.136,-3.357
0.607,-0.922,-2.401,-57.739,24.719,-1.221
0.567,-0.931,-2.638,-80.505,10.437,3.723
0.559,-0.913,-2.770,-108.215,-4.517,7.935
0.502,-0.895,-2.833,-137.146,-16.296,10.742
0.491,-0.860,-2.863,-166.931,-26.855,15.564
0.478,-0.776,-2.871,-197.632,-34.851,20.691
0.463,-0.652,-2.879,-226.807,-41.321,26.245
0.461,-0.479,-2.888,-253.723,-49.744,31.677
0.441,-0.246,-2.816,-276.062,-61.890,34.058
0.406,-0.115,-2.704,-295.837,-75.439,31.738
0.341,0.027,-2.543,-317.749,-83.862,32.227
0.288,0.171,-2.402,-342.957,-89.905,36.804
0.220,0.334,-2.193,-363.953,-101.318,43.945
0.171,0.467,-1.980,-377.502,-120.667,51.025
0.142,0.632,-1.687,-384.460,-145.874,59.814
0.139,0.788,-1.365,-384.766,-173.218,64.819
0.163,0.936,-1.010,-379.578,-196.716,64.453
0.149,1.046,-0.728,-375.183,-211.914,60.852
0.156,1.205,-0.393,-373.047,-219.116,56.396
0.150,1.277,-0.120,-371.887,-219.238,48.950
0.140,1.332,0.162,-372.986,-214.783,41.016
0.130,1.376,0.479,-371.582,-208.191,32.349
0.099,1.364,0.770,-366.272,-198.120,21.851
0.091,1.309,1.034,-358.948,-184.509,12.085
0.094,1.260,1.208,-348.572,-170.166,3.784
0.075,1.240,1.309,-334.839,-153.748,-3.357
0.035,1.240,1.425,-320.618,-139.038,-9.338
-0.053,1.181,1.618,-309.021,-130.981,-14.465
-0.127,1.082,1.903,-300.415,-124.084,-14.832
-0.142,1.004,2.345,-290.527,-117.859,-14.893
-0.124,0.853,2.550,-266.724,-110.107,-12.634
-0.086,0.773,2.649,-235.535,-94.543,-11.963
-0.083,0.707,2.600,-199.402,-76.294,-15.381
-0.067,0.662,2.419,-164.001,-55.786,-19.226
-0.067,0.649,2.168,-137.390,-35.156,-21.545
-0.022,0.611,1.949,-119.507,-20.386,-20.874
0.019,0.572,1.772,-101.990,-12.451,-19.470
0.072,0.529,1.619,-84.656,-8.728,-16.846
0.142,0.501,1.491,-72.693,-6.531,-12.573
0.223,0.438,1.382,-65.308,-4.089,-7.996
0.296,0.387,1.316,-58.411,1.892,-6.958
0.346,0.324,1.225,-51.331,8.850,-6.409
0.394,0.270,1.117,-46.387,13.550,-5.371
0.461,0.249,1.070,-40.588,14.343,-4.333
0.520,0.168,1.023,-31.067,10.071,-5.127
0.513,0.115,0.976,-20.386,7.446,-7.141
0.523,0.089,0.912,-16.663,7.996,-6.775
0.537,0.072,0.881,-17.456,7.629,-5.127
0.544,0.026,0.936,-16.907,3.296,-3.906
0.554,-0.004,1.008,-14.160,-1.526,-2.869
0.559,-0.014,1.047,-11.230,-3.052,-2.197
0.558,-0.006,1.047,-10.132,-0.549,-1.770
0.566,-0.012,1.030,-9.766,3.174,-2.136
0.554,-0.052,1.013,-7.141,6.042,-4.150
0.540,-0.085,0.996,-4.517,8.667,-5.432
0.535,-0.088,0.942,-2.625,10.742,-6.348
0.538,-0.087,0.839,-1.404,10.803,-8.057
0.555,-0.153,0.800,-2.808,9.705,-10.315
0.551,-0.210,0.812,-2.319,10.681,-9.583
0.517,-0.215,0.785,-0.427,10.803,-6.714
0.521,-0.201,0.761,1.770,8.667,-5.371
0.515,-0.196,0.769,3.052,5.066,-4.639
0.532,-0.181,0.790,1.831,1.404,-2.991
0.543,-0.174,0.822,0.061,-0.671,-2.075
0.558,-0.168,0.842,-1.648,-1.343,-1.831
0.574,-0.164,0.849,-3.784,-0.427,-1.465
0.582,-0.176,0.839,-4.700,0.977,-1.709
0.583,-0.181,0.817,-3.662,1.953,-1.892
0.585,-0.180,0.810,-0.366,2.075,-2.136
0.565,-0.171,0.817,3.845,1.953,-2.441
0.568,-0.155,0.810,6.470,2.625,-2.502
0.567,-0.134,0.808,6.042,3.540,-2.502
0.541,-0.138,0.792,4.761,4.700,-3.601
0.525,-0.143,0.793,1.343,3.662,-3.113
0.543,-0.146,0.779,-2.319,1.343,-2.502
0.535,-0.147,0.795,-4.578,-3.235,-2.563
0.551,-0.134,0.835,-5.615,-6.104,-1.953
0.578,-0.116,0.862,-5.981,-6.409,-1.160
0.573,-0.126,0.849,-4.883,-5.432,-1.343
0.553,-0.142,0.834,-3.540,-3.723,-0.916
0.565,-0.124,0.867,-1.343,-2.563,0.000
0.555,-0.125,0.877,4.272,-1.465,-1.709
0.543,-0.124,0.880,6.958,-0.183,-3.662
0.543,-0.129,0.862,5.920,3.418,-4.639
0.544,-0.141,0.826,4.028,6.592,-5.859
0.532,-0.155,0.783,2.991,8.423,-6.836
0.524,-0.162,0.755,2.075,7.263,-7.141
0.525,-0.169,0.752,1.709,3.662,-6.714
0.527,-0.175,0.761,0.549,0.671,-5.554
0.529,-0.176,0.785,-1.160,-1.160,-3.296
0.536,-0.167,0.816,-1.709,-3.113,-1.709
0.545,-0.157,0.842,0.183,-5.005,-1.343
0.551,-0.154,0.855,2.197,-5.798,-2.197
0.559,-0.146,0.853,3.052,-4.944,-2.747
0.572,-0.130,0.846,2.930,-3.662,-3.174
0.582,-0.121,0.830,3.174,-2.197,-4.089
0.583,-0.124,0.814,2.808,-0.854,-5.676
0.582,-0.120,0.813,2.014,0.061,-6.592
0.575,-0.122,0.817,2.441,-0.183,-7.263
0.562,-0.144,0.830,3.174,-0.977,-8.118
0.550,-0.148,0.840,2.747,-1.221,-8.301
0.533,-0.153,0.848,1.831,-0.732,-7.690
0.521,-0.163,0.857,1.099,-1.099,-7.141
0.516,-0.158,0.870,1.465,-1.709,-6.104
0.515,-0.151,0.876,2.625,-2.197,-5.432
0.514,-0.160,0.878,4.395,-2.319,-5.615
0.512,-0.160,0.860,4.883,-1.343,-5.676
0.507,-0.162,0.833,4.761,-0.122,-5.493
0.505,-0.167,0.825,4.883,-0.061,-5.432
0.510,-0.168,0.828,4.700,-0.366,-5.005
0.514,-0.170,0.830,5.066,-0.061,-5.005
0.508,-0.178,0.830,5.920,0.366,-5.188
0.501,-0.183,0.820,5.676,0.610,-4.761
0.512,-0.186,0.815,4.944,0.244,-3.845
0.520,-0.190,0.815,5.188,-0.854,-3.662
0.521,-0.186,0.821,5.981,-1.343,-3.540
0.523,-0.187,0.828,5.432,-1.160,-3.479
0.526,-0.191,0.836,4.456,-0.427,-3.418
0.529,-0.201,0.835,4.456,0.305,-3.906
0.703,-0.727,-2.404,-104.004,-7.080,6.470
0.640,-0.881,-2.568,-136.414,-14.465,8.301
0.513,-0.961,-2.660,-168.091,-22.705,11.780
0.423,-1.022,-2.761,-196.655,-33.142,20.569
0.423,-1.000,-2.796,-221.497,-47.485,31.311
0.484,-0.941,-2.779,-237.610,-66.162,38.757
0.536,-0.761,-2.761,-246.704,-86.243,44.250
0.614,-0.568,-2.737,-254.150,-105.164,44.922
0.627,-0.340,-2.682,-260.620,-120.117,39.917
0.617,-0.144,-2.647,-273.621,-128.784,34.302
0.555,0.102,-2.580,-293.945,-133.057,31.250
0.478,0.291,-2.494,-316.223,-138.672,29.602
0.369,0.446,-2.350,-339.172,-147.156,31.250
0.260,0.597,-2.131,-363.892,-158.508,39.185
0.178,0.725,-1.886,-383.972,-174.255,49.438
0.119,0.880,-1.571,-395.081,-194.397,60.059
0.115,1.021,-1.232,-396.484,-215.332,65.247
0.108,1.171,-0.905,-388.306,-232.910,62.561
0.088,1.285,-0.584,-376.404,-243.591,51.086
0.068,1.354,-0.253,-366.455,-243.530,36.011
-0.004,1.359,0.040,-366.028,-229.980,23.621
-0.028,1.376,0.371,-377.075,-207.581,16.724
-0.064,1.260,0.642,-379.883,-189.148,10.437
-0.079,1.221,0.859,-367.737,-176.636,4.639
-0.146,1.251,1.013,-346.069,-166.077,-2.625
-0.220,1.270,1.156,-326.660,-153.076,-9.216
-0.255,1.234,1.360,-319.397,-138.123,-13.062
-0.352,1.130,1.632,-313.782,-124.451,-14.282
-0.405,1.044,1.970,-300.598,-110.535,-14.526
-0.422,0.896,2.290,-283.142,-102.783,-9.216
-0.303,0.781,2.554,-260.132,-101.196,-2.747
-0.119,0.752,2.528,-221.008,-95.093,-0.732
-0.015,0.791,2.386,-177.063,-81.970,-5.493
0.063,0.765,2.190,-140.808,-64.697,-16.235
0.102,0.704,1.965,-116.211,-45.105,-24.536
0.172,0.666,1.748,-103.516,-26.428,-26.794
0.268,0.616,1.564,-92.773,-15.930,-27.161
0.355,0.584,1.406,-76.843,-11.230,-28.320
0.408,0.557,1.294,-61.890,-10.681,-29.053
0.495,0.553,1.210,-52.185,-7.751,-30.945
0.534,0.522,1.140,-48.218,-1.709,-33.386
0.547,0.469,1.075,-48.279,8.179,-37.109
0.547,0.397,1.013,-49.316,16.052,-39.795
0.534,0.344,0.998,-48.889,17.273,-39.429
0.547,0.286,1.050,-44.861,12.878,-38.513
0.546,0.231,1.139,-36.377,6.531,-38.574
0.514,0.182,1.183,-27.344,3.967,-39.307
0.502,0.135,1.204,-23.376,5.920,-38.269
0.527,0.100,1.227,-21.118,10.010,-36.804
0.534,0.048,1.205,-12.939,13.123,-38.269
0.528,0.015,1.131,-3.479,16.174,-40.039
0.523,0.003,1.042,0.366,19.348,-39.063
0.527,-0.040,0.938,2.075,21.118,-36.621
0.529,-0.076,0.886,2.319,21.118,-35.645
0.509,-0.140,0.819,1.587,22.156,-34.058
0.501,-0.187,0.784,-0.977,21.606,-29.785
0.490,-0.230,0.771,-3.235,18.494,-24.780
0.490,-0.240,0.787,-4.272,13.855,-18.921
0.509,-0.240,0.820,-4.333,8.057,-13.184
0.525,-0.225,0.828,-3.357,5.005,-8.911
0.537,-0.204,0.812,-2.625,3.906,-6.531
0.548,-0.199,0.794,-1.221,2.563,-5.676
0.556,-0.196,0.792,0.244,1.160,-5.127
0.552,-0.201,0.791,0.366,1.404,-4.211
0.560,-0.218,0.800,0.061,1.587,-3.540
0.581,-0.236,0.799,0.061,1.953,-2.441
0.579,-0.235,0.773,0.244,3.174,-2.136
0.570,-0.250,0.748,-1.160,4.211,-1.587
0.570,-0.248,0.732,-3.723,3.784,-0.916
0.564,-0.243,0.739,-4.089,1.038,0.244
0.576,-0.234,0.769,-3.113,-2.136,1.282
0.602,-0.209,0.786,-2.563,-2.808,1.709
0.604,-0.184,0.761,-1.770,-0.183,0.549
0.597,-0.182,0.744,-1.465,1.770,-1.343
0.594,-0.193,0.748,-2.991,2.319,-2.014
0.591,-0.193,0.783,-4.761,2.014,-0.977
0.596,-0.206,0.816,-4.517,0.916,-0.732
0.585,-0.212,0.846,-3.235,-0.916,0.183
0.595,-0.207,0.851,-2.014,-1.770,1.038
0.598,-0.189,0.862,-0.854,-3.174,1.648
0.608,-0.171,0.869,0.366,-4.272,1.282
0.632,-0.152,0.848,1.526,-3.723,0.488
0.632,-0.144,0.806,1.221,-0.183,-1.038
0.623,-0.153,0.768,-1.404,3.723,-2.075
0.615,-0.180,0.734,-4.211,6.409,-2.258
0.605,-0.187,0.703,-4.211,6.104,-2.258
0.582,-0.193,0.684,-2.502,2.808,-2.319
0.569,-0.207,0.707,-2.441,-1.282,-0.977
0.567,-0.200,0.749,-3.540,-4.761,1.343
0.561,-0.184,0.793,-2.625,-7.507,2.869
0.560,-0.175,0.839,-1.404,-8.850,3.418
0.573,-0.162,0.878,-1.221,-7.935,3.662
0.582,-0.160,0.886,-0.977,-5.249,2.930
0.590,-0.167,0.869,-0.427,-1.160,1.465
0.600,-0.177,0.837,0.549,2.197,-0.366
0.603,-0.183,0.787,1.770,3.723,-2.075
0.603,-0.187,0.746,2.441,3.479,-2.747
0.603,-0.178,0.729,1.465,1.404,-2.136
0.606,-0.170,0.750,0.671,-1.587,-2.014
0.609,-0.167,0.775,0.183,-3.174,-2.075
0.606,-0.179,0.779,-1.221,-1.953,-2.380
0.599,-0.187,0.774,-3.113,0.488,-2.441
0.594,-0.195,0.768,-3.479,2.075,-2.869
0.586,-0.208,0.765,-1.770,1.831,-3.906
0.570,-0.212,0.775,0.305,0.183,-4.883
0.560,-0.209,0.804,2.136,-2.197,-4.517
0.561,-0.203,0.830,3.418,-4.089,-3.845
0.559,-0.189,0.838,4.272,-4.150,-3.418
0.559,-0.184,0.833,4.272,-2.686,-3.601
0.551,-0.183,0.820,3.967,-0.610,-4.028
0.548,-0.179,0.806,3.723,0.671,-4.150
0.550,-0.186,0.804,3.296,1.221,-4.028
0.549,-0.196,0.805,3.235,1.648,-3.723
0.549,-0.194,0.787,3.296,1.892,-2.625
0.555,-0.196,0.759,2.930,1.404,-1.343
0.571,-0.196,0.737,1.892,0.854,-0.122
0.580,-0.190,0.721,1.404,-0.183,0.488
0.582,-0.182,0.718,1.648,-1.099,0.671
0.584,-0.182,0.724,1.282,-1.343,0.549
0.560,-0.806,-2.207,-132.080,-18.799,-4.395
0.542,-0.784,-2.295,-146.118,-32.288,2.625
0.540,-0.709,-2.334,-161.438,-47.485,10.437
0.531,-0.620,-2.368,-177.307,-63.660,18.677
0.548,-0.476,-2.352,-195.312,-76.355,25.024
0.531,-0.312,-2.360,-215.210,-84.778,29.175
0.524,-0.136,-2.336,-237.427,-90.576,29.602
0.515,0.038,-2.289,-259.216,-93.140,27.222
0.511,0.186,-2.243,-280.823,-95.642,24.048
0.447,0.319,-2.130,-302.368,-101.135,21.362
0.362,0.427,-1.985,-322.632,-108.704,20.752
0.285,0.499,-1.813,-341.370,-118.652,22.400
0.227,0.590,-1.616,-355.103,-132.141,26.001
0.187,0.708,-1.389,-359.924,-150.024,28.503
0.165,0.810,-1.145,-357.727,-169.312,28.198
0.155,0.901,-0.913,-353.210,-185.364,23.071
0.164,1.034,-0.710,-347.778,-194.824,16.174
0.161,1.156,-0.529,-346.191,-198.547,9.094
0.156,1.237,-0.343,-346.436,-195.984,-2.136
0.124,1.257,-0.158,-345.398,-192.444,-13.611
0.047,1.281,0.065,-344.299,-188.477,-23.010
0.013,1.294,0.347,-344.727,-184.448,-30.579
-0.087,1.296,0.708,-345.886,-179.504,-34.668
-0.158,1.242,1.135,-348.083,-173.645,-36.804
-0.178,1.117,1.549,-345.764,-165.283,-39.001
-0.194,0.979,1.882,-334.290,-153.442,-39.856
-0.172,0.899,2.131,-314.880,-138.794,-39.490
-0.149,0.863,2.261,-289.062,-123.535,-40.161
-0.209,0.846,2.394,-258.789,-110.657,-43.823
-0.200,0.745,2.530,-231.262,-99.609,-45.837
-0.183,0.677,2.704,-208.435,-86.548,-46.143
-0.167,0.570,2.767,-178.833,-71.899,-49.377
-0.112,0.529,2.700,-146.179,-53.528,-52.246
-0.057,0.501,2.545,-118.958,-34.668,-51.758
0.020,0.481,2.350,-94.849,-14.832,-52.856
0.064,0.441,2.099,-70.984,2.625,-54.138
0.110,0.411,1.838,-52.856,16.541,-52.979
0.167,0.383,1.580,-38.086,23.621,-50.476
0.198,0.327,1.351,-26.123,24.597,-45.654
0.226,0.299,1.144,-22.705,25.879,-40.039
0.251,0.258,1.009,-26.306,22.888,-33.386
0.258,0.180,0.977,-31.006,16.357,-27.283
0.276,0.078,1.027,-32.593,7.935,-21.790
0.310,0.012,1.097,-30.457,1.648,-15.808
0.336,-0.031,1.125,-26.245,0.732,-11.719
0.362,-0.077,1.134,-22.156,3.052,-9.827
0.378,-0.133,1.141,-16.907,5.676,-9.521
0.388,-0.187,1.134,-8.545,6.287,-9.949
0.394,-0.222,1.113,-0.244,5.737,-10.376
0.409,-0.232,1.064,5.188,5.981,-9.644
0.420,-0.235,0.999,7.263,6.958,-8.362
0.426,-0.248,0.929,7.263,7.690,-7.202
0.432,-0.248,0.871,6.714,6.836,-5.676
0.437,-0.243,0.817,6.592,5.005,-3.845
0.456,-0.259,0.782,5.920,3.418,-2.808
0.454,-0.304,0.768,2.869,3.357,-0.732
0.448,-0.319,0.745,-1.038,6.165,0.793
0.438,-0.315,0.732,-3.784,7.812,2.075
0.440,-0.302,0.736,-3.357,4.333,2.808
0.431,-0.316,0.780,-0.183,-1.526,2.808
0.437,-0.320,0.841,1.953,-5.676,3.235
0.461,-0.312,0.880,2.625,-6.165,3.601
0.478,-0.329,0.911,4.089,-4.333,2.441
0.491,-0.353,0.909,5.310,0.549,0.610
0.495,-0.341,0.860,5.615,6.714,-0.488
0.501,-0.324,0.803,5.005,11.597,-1.343
0.501,-0.338,0.753,3.418,13.306,-2.258
0.500,-0.337,0.730,1.038,12.512,-2.258
0.498,-0.325,0.729,-1.221,10.010,-1.587
0.498,-0.343,0.752,-2.808,7.690,-1.404
0.492,-0.366,0.773,-5.310,7.629,-1.343
0.479,-0.374,0.776,-8.972,8.911,0.061
0.470,-0.372,0.770,-10.681,8.301,0.916
0.461,-0.378,0.766,-8.850,4.578,0.793
0.454,-0.367,0.775,-5.615,-0.549,1.465
0.467,-0.344,0.801,-3.296,-4.944,2.441
0.471,-0.331,0.827,-1.221,-7.080,2.380
0.475,-0.314,0.841,-0.305,-7.507,2.502
0.484,-0.296,0.844,-1.221,-6.470,2.258
0.478,-0.303,0.843,-2.136,-4.333,1.404
0.475,-0.311,0.849,-3.967,-1.709,1.343
0.478,-0.302,0.836,-5.920,1.648,1.892
0.476,-0.301,0.818,-6.775,3.784,1.770
0.475,-0.307,0.800,-7.385,4.761,1.648
0.469,-0.305,0.788,-7.507,4.639,2.197
0.471,-0.298,0.788,-6.897,2.991,2.869
0.480,-0.284,0.812,-6.226,0.854,3.418
0.490,-0.279,0.835,-4.700,-0.183,2.869
0.493,-0.285,0.850,-4.272,0.671,2.014
0.491,-0.298,0.857,-4.944,2.930,1.953
0.486,-0.304,0.855,-4.517,3.845,2.136
0.495,-0.302,0.845,-2.991,2.563,2.441
0.506,-0.289,0.845,-1.770,0.610,2.747
0.516,-0.280,0.843,-1.038,-0.854,2.563
0.518,-0.273,0.833,-1.160,-1.160,1.831
0.520,-0.273,0.828,-2.625,-0.977,1.648
0.518,-0.285,0.833,-4.456,-1.099,1.221
0.513,-0.288,0.841,-4.333,-1.404,0.793
0.511,-0.279,0.844,-3.174,-1.831,0.488
0.520,-0.273,0.843,-2.380,-1.648,-0.549
0.522,-0.277,0.837,-2.441,-0.244,-2.197
0.511,-0.278,0.827,-2.441,1.587,-3.113
0.497,-0.276,0.817,-2.014,1.648,-3.662
0.481,-0.278,0.807,-1.831,-0.366,-3.418
0.481,-0.277,0.819,-2.502,-3.296,-2.258
0.481,-0.280,0.853,-3.296,-5.371,-1.221
0.468,-0.289,0.880,-2.747,-6.226,-0.977
0.457,-0.292,0.895,-2.380,-5.493,-0.183
0.453,-0.285,0.898,-2.441,-4.639,0.671
0.450,-0.293,0.894,-1.221,-4.395,0.854
0.448,-0.302,0.898,0.183,-4.639,1.221
0.457,-0.295,0.900,1.831,-4.211,1.587
0.467,-0.278,0.886,3.235,-2.625,1.160
0.476,-0.268,0.855,3.967,0.000,0.488
0.480,-0.262,0.811,4.089,2.380,-0.366
0.475,-0.257,0.769,3.662,3.357,-0.793
0.467,-0.255,0.738,2.563,2.625,-1.099
0.471,-0.258,0.735,1.343,0.427,-0.793
0.473,-0.266,0.751,0.244,-1.709,-0.793
0.592,-0.557,-2.558,-125.488,-3.479,12.329
0.578,-0.557,-2.665,-150.696,-5.981,13.672
0.518,-0.529,-2.773,-178.101,-7.019,15.259
0.453,-0.505,-2.882,-204.773,-10.376,17.334
0.389,-0.403,-2.960,-229.919,-16.907,20.081
0.336,-0.283,-2.982,-255.066,-32.837,28.015
0.300,-0.087,-2.901,-279.541,-54.138,37.170
0.267,0.094,-2.786,-301.025,-76.355,45.044
0.247,0.234,-2.637,-319.397,-95.337,50.354
0.191,0.400,-2.398,-339.172,-111.023,55.054
0.175,0.538,-2.193,-356.323,-122.559,57.556
0.149,0.662,-1.962,-367.004,-133.545,58.411
0.112,0.742,-1.735,-370.300,-146.912,56.702
0.054,0.822,-1.492,-371.704,-162.292,56.152
0.022,0.874,-1.261,-375.610,-177.063,56.946
0.027,0.983,-0.993,-379.761,-188.477,57.922
0.055,1.078,-0.752,-379.272,-197.327,56.702
0.086,1.143,-0.560,-375.549,-201.355,52.002
0.116,1.225,-0.376,-372.009,-199.707,43.640
0.129,1.291,-0.247,-369.324,-190.918,31.921
0.123,1.280,-0.099,-368.591,-177.368,17.639
0.094,1.236,0.105,-367.310,-166.504,4.272
0.046,1.192,0.360,-364.624,-158.813,-4.822
-0.015,1.149,0.681,-361.511,-153.015,-10.010
-0.032,1.081,1.063,-358.521,-151.001,-10.925
0.021,1.001,1.391,-350.647,-146.606,-12.207
0.006,0.968,1.659,-330.078,-136.780,-14.832
0.035,0.873,1.886,-307.800,-129.211,-15.320
0.080,0.844,2.061,-289.856,-118.591,-16.479
0.106,0.809,2.193,-268.250,-105.530,-19.897
0.107,0.740,2.286,-242.859,-91.736,-26.123
0.145,0.677,2.279,-222.839,-75.439,-29.114
0.193,0.672,2.276,-206.482,-56.519,-30.701
0.239,0.569,2.227,-184.814,-41.443,-37.476
0.257,0.512,2.112,-159.790,-26.367,-42.236
0.292,0.488,1.962,-138.611,-13.672,-42.664
0.331,0.473,1.821,-118.835,-6.531,-43.030
0.351,0.451,1.677,-96.863,-3.967,-44.678
0.369,0.437,1.505,-81.665,0.366,-44.006
0.367,0.425,1.377,-75.928,4.517,-41.626
0.365,0.374,1.312,-72.144,4.395,-38.391
0.378,0.301,1.297,-66.406,-0.671,-35.095
0.380,0.261,1.266,-56.702,-5.615,-31.860
0.373,0.227,1.230,-47.363,-6.836,-28.931
0.371,0.192,1.214,-43.152,-6.042,-25.879
0.385,0.148,1.250,-39.612,-5.310,-23.926
0.403,0.100,1.286,-32.471,-4.272,-24.719
0.410,0.036,1.256,-23.682,0.183,-25.940
0.405,0.006,1.193,-19.104,8.972,-25.696
0.429,-0.017,1.135,-18.860,16.785,-24.231
0.429,-0.068,1.080,-16.296,20.264,-23.315
0.428,-0.120,1.001,-10.315,22.949,-24.475
0.434,-0.148,0.925,-4.944,22.522,-23.499
0.455,-0.162,0.852,-0.854,20.325,-21.301
0.470,-0.183,0.816,2.319,16.235,-19.653
0.445,-0.214,0.799,1.465,12.024,-16.541
0.464,-0.243,0.795,-1.099,11.230,-14.404
0.471,-0.266,0.788,-2.869,11.230,-11.292
0.472,-0.278,0.762,-3.296,10.986,-9.399
0.462,-0.286,0.752,-2.930,9.033,-7.141
0.476,-0.292,0.787,-2.625,5.432,-5.127
0.490,-0.299,0.826,-0.916,2.808,-4.333
0.494,-0.293,0.836,1.038,3.357,-4.150
0.492,-0.319,0.818,1.404,5.249,-3.662
0.494,-0.334,0.807,0.549,5.432,-2.380
0.529,-0.309,0.804,0.488,4.700,0.061
0.559,-0.297,0.784,2.075,4.761,0.488
0.564,-0.305,0.753,2.991,6.775,-0.366
0.581,-0.322,0.720,1.587,8.972,-0.122
0.602,-0.329,0.688,0.916,9.766,0.122
0.602,-0.321,0.680,0.977,9.033,-0.427
0.593,-0.336,0.706,-1.770,7.202,0.427
0.594,-0.340,0.762,-6.714,4.456,3.052
0.609,-0.327,0.806,-8.667,2.136,5.188
0.614,-0.313,0.844,-7.568,-0.610,5.676
0.620,-0.305,0.859,-5.310,-2.991,4.883
0.611,-0.306,0.854,-1.587,-4.456,2.319
0.597,-0.297,0.829,1.343,-4.883,1.343
0.600,-0.274,0.807,1.526,-4.944,1.770
0.607,-0.250,0.804,2.441,-6.165,1.648
0.611,-0.231,0.809,4.639,-7.568,0.732
0.608,-0.224,0.806,4.028,-5.676,-1.099
0.599,-0.227,0.784,1.099,-1.282,-2.502
0.572,-0.231,0.745,-2.686,4.272,-3.174
0.555,-0.241,0.732,-6.348,7.202,-3.357
0.528,-0.271,0.737,-7.202,6.531,-3.662
0.494,-0.288,0.732,-6.775,4.333,-2.747
0.483,-0.278,0.751,-7.324,0.427,-0.122
0.487,-0.279,0.796,-5.859,-4.211,1.709
0.491,-0.280,0.827,-2.808,-6.714,2.930
0.494,-0.267,0.841,-1.465,-6.287,4.211
0.514,-0.249,0.850,-1.953,-4.761,5.066
0.529,-0.260,0.850,-0.610,-3.418,4.089
0.528,-0.260,0.828,1.282,-1.038,2.747
0.552,-0.245,0.801,1.038,0.977,2.197
0.566,-0.239,0.776,1.587,1.831,0.488
0.567,-0.240,0.752,2.991,1.831,-1.343
0.551,-0.249,0.725,2.686,1.953,-2.686
0.536,-0.264,0.726,0.061,1.160,-2.014
0.552,-0.269,0.755,-2.869,-0.427,-1.282
0.545,-0.271,0.792,-3.174,-1.892,-1.160
0.547,-0.284,0.827,-4.028,-1.770,-0.977
0.539,-0.291,0.835,-5.249,-0.122,-0.610
0.523,-0.289,0.837,-5.432,1.465,-0.061
0.527,-0.294,0.851,-4.883,1.160,0.732
0.529,-0.286,0.850,-2.258,0.061,1.099
0.525,-0.269,0.840,1.343,-0.793,0.610
0.528,-0.264,0.824,3.723,-1.465,-0.061
0.536,-0.266,0.815,4.395,-1.038,-0.732
0.532,-0.265,0.793,4.333,0.488,-1.221
0.533,-0.268,0.768,3.784,1.404,-0.916
0.551,-0.263,0.750,3.784,0.671,-0.549
0.555,-0.256,0.728,4.272,0.183,-0.732
0.559,-0.258,0.729,2.136,0.427,-0.427
0.570,-0.264,0.743,-0.610,0.671,0.000
0.575,-0.266,0.757,-0.977,0.000,0.000
0.569,-0.273,0.758,-1.038,-0.305,-0.427
0.558,-0.271,0.760,-1.892,-0.854,0.000
0.561,-0.263,0.782,-2.441,-2.197,0.366
0.668,-1.044,-2.500,-28.137,11.230,-6.470
0.693,-1.077,-3.011,-51.819,17.761,-9.094
0.603,-1.074,-3.551,-84.717,31.128,-15.869
0.466,-1.147,-3.996,-125.549,39.978,-22.156
0.135,-1.204,-4.000,-174.988,43.640,-24.658
-0.182,-1.273,-4.000,-229.553,39.978,-21.179
-0.447,-1.306,-4.000,-279.846,29.175,-7.385
-0.611,-1.137,-4.000,-318.115,11.475,16.663
-0.667,-0.732,-4.000,-344.177,-15.930,48.340
-0.688,-0.125,-4.000,-362.244,-53.467,80.139
-0.668,0.558,-4.000,-379.456,-95.093,106.445
-0.590,1.098,-3.890,-401.733,-132.141,124.573
-0.542,1.507,-3.440,-429.138,-162.170,138.733
-0.493,1.795,-2.981,-454.590,-188.660,151.550
-0.477,2.053,-2.496,-472.412,-217.957,164.124
-0.459,2.340,-1.947,-482.788,-250.916,173.279
-0.485,2.562,-1.244,-485.352,-286.682,175.842
-0.440,2.656,-0.422,-477.173,-323.853,168.762
-0.348,2.580,0.408,-457.520,-350.220,150.085
-0.215,2.467,1.011,-427.979,-348.022,123.596
-0.142,2.404,1.308,-400.330,-313.354,94.666
-0.211,2.319,1.482,-392.456,-260.437,69.275
-0.317,2.145,1.714,-403.809,-207.581,52.612
-0.398,1.902,2.002,-408.875,-174.011,44.983
-0.407,1.667,2.293,-390.198,-161.316,41.077
-0.341,1.483,2.531,-348.877,-161.743,37.292
-0.165,1.376,2.608,-293.335,-160.400,30.334
0.027,1.342,2.415,-243.591,-149.048,19.714
0.174,1.343,2.154,-208.618,-125.244,4.395
0.186,1.302,1.896,-185.730,-95.337,-12.512
0.179,1.233,1.644,-174.377,-64.270,-24.414
0.182,1.146,1.433,-167.786,-44.739,-31.189
0.194,1.094,1.301,-157.349,-38.574,-34.485
0.192,1.057,1.315,-142.944,-42.969,-35.767
0.223,0.907,1.467,-128.479,-52.856,-36.621
0.251,0.906,1.610,-115.601,-55.969,-36.438
0.297,0.861,1.699,-103.455,-50.232,-39.001
0.278,0.790,1.744,-86.609,-39.917,-46.387
-0.040,3.302,4.000,-60.364,-26.062,-55.786
0.103,0.313,2.463,61.523,16.235,-115.967
0.021,-0.154,1.997,22.583,59.082,-153.625
0.060,0.515,0.326,10.681,152.039,-71.045
0.182,0.438,0.278,-29.175,100.830,-35.767
0.302,0.092,0.466,-15.320,28.381,-53.528
0.184,-0.219,0.624,44.556,-19.836,-55.298
0.336,-0.234,0.527,39.368,-18.005,-45.349
0.412,-0.202,0.426,13.306,5.310,-34.302
0.329,-0.332,0.400,0.671,24.231,-34.241
0.252,-0.510,0.481,-10.742,27.771,-32.166
0.237,-0.584,0.640,-17.761,19.287,-23.193
0.294,-0.606,0.752,-15.076,7.690,-13.611
0.375,-0.535,0.827,-10.193,1.465,-7.202
0.426,-0.469,0.890,-10.010,1.099,-0.488
0.472,-0.461,0.989,-13.855,3.967,3.357
0.520,-0.441,1.061,-15.564,6.470,6.836
0.585,-0.390,1.049,-13.916,11.230,10.071
0.644,-0.310,1.003,-11.597,15.930,12.146
0.704,-0.242,0.942,-10.254,19.287,12.329
0.762,-0.188,0.847,-10.071,22.278,11.169
0.789,-0.161,0.753,-11.902,25.146,8.301
0.793,-0.157,0.680,-16.113,27.161,5.798
0.785,-0.203,0.663,-20.386,25.696,3.784
0.741,-0.248,0.658,-21.790,21.301,3.235
0.708,-0.251,0.683,-20.813,13.367,4.822
0.684,-0.227,0.753,-16.602,2.747,7.019
0.680,-0.202,0.859,-11.780,-5.798,7.690
0.683,-0.197,0.965,-10.315,-7.874,6.592
0.673,-0.209,1.004,-10.132,-2.747,3.357
0.640,-0.248,0.975,-8.728,6.409,-0.610
0.612,-0.276,0.938,-5.737,12.634,-3.540
0.609,-0.265,0.854,-2.258,17.212,-3.967
0.613,-0.252,0.774,0.488,19.531,-4.517
0.591,-0.267,0.712,1.770,20.020,-5.249
0.581,-0.287,0.668,-0.977,19.348,-3.540
0.577,-0.286,0.629,-4.456,16.479,-0.366
0.570,-0.285,0.586,-5.127,10.559,2.686
0.559,-0.292,0.585,-5.371,2.686,6.165
0.561,-0.293,0.633,-7.263,-4.944,10.437
0.587,-0.272,0.695,-9.460,-10.254,14.709
0.618,-0.238,0.741,-9.216,-13.367,16.602
0.639,-0.216,0.783,-6.775,-13.855,15.198
0.647,-0.192,0.802,-6.409,-10.620,13.184
0.666,-0.183,0.827,-9.277,-5.188,11.353
0.661,-0.203,0.815,-11.597,1.038,8.423
0.647,-0.204,0.782,-12.634,6.836,6.531
0.643,-0.195,0.750,-14.038,10.132,5.676
0.628,-0.198,0.731,-14.465,10.254,4.883
0.615,-0.201,0.720,-14.648,7.812,4.883
0.609,-0.187,0.711,-16.418,5.310,6.836
0.619,-0.169,0.726,-19.958,4.150,8.789
0.624,-0.181,0.752,-22.583,4.272,8.301
0.609,-0.212,0.778,-20.569,4.089,6.104
0.593,-0.231,0.777,-15.198,1.770,4.517
0.598,-0.222,0.760,-10.376,-1.160,4.150
0.604,-0.217,0.754,-6.348,-3.418,4.150
0.604,-0.213,0.761,-4.150,-4.700,4.883
0.602,-0.188,0.779,-3.479,-5.676,5.432
0.609,-0.169,0.798,-2.441,-6.653,5.554
0.626,-0.151,0.804,-1.770,-6.653,4.883
0.647,-0.148,0.785,-2.869,-3.845,3.662
0.646,-0.156,0.743,-5.432,1.404,2.319
0.639,-0.174,0.706,-8.179,4.700,1.770
0.632,-0.174,0.690,-8.972,3.784,2.197
0.637,-0.171,0.705,-8.118,0.000,3.174
0.649,-0.162,0.747,-7.629,-3.174,3.845
0.637,-0.156,0.785,-6.714,-4.333,3.296
0.619,-0.159,0.818,-5.920,-4.517,2.563
0.613,-0.166,0.833,-6.226,-3.662,2.502
0.609,-0.174,0.837,-5.737,-2.869,2.319
0.596,-0.176,0.829,-5.005,-1.404,1.831
0.597,-0.177,0.812,-4.883,-0.122,1.831
0.599,-0.172,0.795,-4.944,0.549,1.831
0.597,-0.166,0.768,-3.906,0.732,1.526
0.599,-0.163,0.754,-4.150,0.427,1.953
0.613,-0.155,0.744,-4.333,-0.061,2.319
0.614,-0.139,0.732,-3.235,-0.977,2.136
0.601,-0.153,0.735,-3.235,-1.648,1.648
0.600,-0.159,0.753,-5.493,-2.014,2.502
0.614,-0.148,0.759,-6.836,-2.197,3.479
0.343,0.652,1.671,-40.833,33.875,32.043
0.296,0.711,1.703,-61.462,39.795,26.611
0.263,0.749,1.775,-81.421,44.617,17.273
0.176,0.745,1.975,-95.764,49.561,6.714
0.123,0.764,2.170,-108.887,57.739,-3.723
0.039,0.762,2.320,-131.104,70.129,-14.465
-0.049,0.783,2.403,-160.889,84.778,-30.029
-0.171,0.784,2.436,-190.857,101.013,-49.500
-0.324,0.782,2.526,-218.262,118.469,-73.730
-0.469,0.759,2.655,-246.460,142.273,-102.356
-0.630,0.670,2.733,-276.733,173.218,-135.071
-0.749,0.562,2.749,-311.646,204.224,-171.326
-0.848,0.380,2.657,-346.802,234.314,-211.243
-0.932,0.152,2.495,-372.986,261.475,-248.291
-1.062,0.012,2.391,-387.085,283.813,-274.902
-1.133,-0.043,2.386,-398.560,305.237,-296.997
-1.240,-0.116,2.472,-411.682,326.294,-318.665
-1.382,-0.204,2.510,-433.411,340.820,-339.050
-1.523,-0.292,2.391,-468.872,352.905,-368.408
-1.645,-0.354,1.984,-504.517,373.535,-403.137
-1.757,-0.415,1.539,-518.860,395.020,-436.890
-1.838,-0.506,1.090,-513.855,407.227,-466.553
-1.864,-0.635,0.726,-504.333,400.635,-497.742
-1.912,-0.839,0.405,-493.774,383.606,-529.907
-2.000,-1.091,0.082,-475.037,368.225,-552.612
-2.035,-1.342,-0.213,-446.960,355.347,-562.500
-1.885,-1.414,-0.474,-416.565,344.421,-557.800
-1.773,-1.428,-0.590,-380.981,330.322,-541.931
-1.712,-1.431,-0.659,-337.769,314.331,-517.944
-1.772,-1.586,-0.768,-291.321,300.903,-493.958
-1.894,-1.843,-0.915,-255.371,289.673,-469.238
-2.008,-2.153,-1.154,-233.276,276.306,-441.589
-2.032,-2.444,-1.421,-217.712,259.155,-406.189
-1.968,-2.658,-1.668,-196.960,241.760,-364.014
-1.858,-2.780,-1.851,-162.109,214.539,-314.453
-1.788,-2.836,-1.896,-116.272,180.664,-260.315
-1.755,-2.833,-1.826,-69.397,151.306,-205.566
-1.632,-2.705,-1.747,-32.043,129.028,-150.757
-1.520,-2.497,-1.615,-10.254,107.117,-100.098
-1.250,-2.124,-1.443,-1.465,81.848,-57.251
-0.914,-1.714,-1.299,1.343,56.152,-28.015
-0.544,-1.346,-1.152,5.249,32.959,-10.193
-0.268,-1.073,-0.917,9.033,14.099,-0.427
-0.079,-0.828,-0.657,9.766,3.967,6.042
0.035,-0.626,-0.442,4.700,3.967,9.827
0.115,-0.498,-0.325,-4.272,11.780,7.996
0.100,-0.487,-0.316,-12.451,22.034,0.305
0.021,-0.588,-0.379,-19.409,29.175,-11.414
-0.002,-0.718,-0.502,-28.931,32.898,-25.330
-0.026,-0.872,-0.667,-36.194,35.706,-34.729
-0.081,-1.008,-0.807,-39.246,32.837,-37.170
-0.130,-1.092,-0.910,-39.856,25.940,-34.180
-0.160,-1.126,-0.954,-34.912,17.395,-29.114
-0.163,-1.140,-0.938,-25.269,6.470,-24.414
-0.163,-1.148,-0.831,-12.634,-3.601,-19.836
-0.152,-1.125,-0.675,-2.136,-9.216,-15.015
-0.109,-1.021,-0.563,-0.549,-10.620,-11.292
-0.046,-0.920,-0.470,-7.080,-11.536,-10.071
0.004,-0.867,-0.439,-14.404,-11.719,-11.108
0.074,-0.848,-0.487,-19.348,-9.155,-12.634
0.113,-0.848,-0.532,-21.423,-7.446,-13.306
0.172,-0.864,-0.589,-20.264,-6.653,-11.597
0.057,-0.806,-0.531,-17.761,-13.062,-9.949
0.117,-0.798,-0.494,-9.399,0.671,-4.883
0.108,-0.772,-0.520,-4.089,16.479,-0.793
0.062,-0.779,-0.467,-2.380,10.925,-2.197
0.010,-0.804,-0.472,-6.226,6.958,-4.395
-0.030,-0.825,-0.479,-11.108,7.629,-5.127
-0.062,-0.853,-0.518,-12.512,12.878,-4.333
-0.082,-0.883,-0.548,-11.292,17.700,-3.296
-0.089,-0.905,-0.587,-9.338,18.860,-2.380
-0.091,-0.919,-0.622,-6.836,17.273,-1.221
-0.092,-0.922,-0.655,-3.906,13.733,0.732
-0.080,-0.936,-0.670,-1.221,9.277,3.296
-0.065,-0.937,-0.634,0.977,4.150,6.531
-0.052,-0.912,-0.574,3.052,0.732,10.803
-0.051,-0.877,-0.522,4.944,-0.122,15.137
-0.037,-0.837,-0.494,4.333,0.366,17.273
-0.029,-0.806,-0.502,0.732,0.549,17.456
-0.006,-0.765,-0.516,-3.479,0.183,13.977
0.013,-0.732,-0.532,-6.897,0.183,9.460
0.028,-0.739,-0.530,-7.751,0.488,4.883
0.037,-0.766,-0.522,-6.653,2.075,1.099
0.029,-0.822,-0.530,-4.700,0.366,-0.793
0.009,-0.874,-0.538,-3.113,-3.906,-1.221
-0.001,-0.873,-0.510,-3.296,-5.615,-0.793
-0.014,-0.941,-0.601,1.343,-6.958,2.441
-0.037,-0.915,-0.571,-3.723,5.249,0.610
-0.035,-0.901,-0.594,-4.883,3.479,0.916
-0.051,-0.886,-0.580,-3.113,-2.563,2.747
-0.052,-0.859,-0.557,-2.441,-5.737,2.991
-0.050,-0.846,-0.553,-1.587,-6.836,2.136
-0.027,-0.852,-0.552,0.122,-4.211,0.854
0.009,-0.857,-0.540,1.465,-2.747,-0.549
0.021,-0.867,-0.509,2.441,-2.197,-1.038
0.033,-0.873,-0.498,2.441,-0.122,-0.427
0.046,-0.866,-0.504,0.610,3.113,0.305
0.045,-0.862,-0.521,-0.549,3.357,1.648
0.016,-0.869,-0.528,-0.488,1.526,2.869
-0.004,-0.858,-0.536,-0.671,0.488,3.113
-0.027,-0.846,-0.532,0.000,0.488,3.845
-0.026,-0.839,-0.523,-0.549,0.854,3.357
-0.031,-0.836,-0.521,-1.404,1.587,2.075
-0.027,-0.841,-0.530,-1.648,2.502,0.732
-0.005,-0.852,-0.540,-2.075,3.296,-0.488
0.015,-0.862,-0.543,-2.991,3.540,-1.099
0.008,-0.871,-0.543,-2.930,2.930,-0.916
-0.008,-0.880,-0.541,-2.136,2.319,-0.732
-0.025,-0.893,-0.536,-0.854,2.136,-0.549
-0.037,-0.893,-0.544,-0.793,2.014,-0.488
-0.043,-0.887,-0.565,-1.953,2.014,-0.427
-0.028,-0.877,-0.589,-3.235,1.892,-0.305
-0.043,-0.866,-0.579,-2.563,0.366,0.427
-0.023,-0.882,-0.581,0.244,1.160,1.709
-0.055,-0.895,-0.589,1.892,-0.183,2.747
-0.064,-0.891,-0.572,0.916,-3.662,2.136
-0.057,-0.880,-0.563,-0.366,-4.883,2.625
-0.040,-0.864,-0.567,-0.427,-4.700,2.747
-0.010,-0.853,-0.561,0.732,-4.089,2.991
-0.008,0.650,2.201,-61.462,129.639,-14.648
0.133,0.375,2.024,-99.182,160.522,-32.593
0.412,0.317,2.263,-128.723,192.383,-46.143
0.496,0.281,2.222,-155.273,208.557,-46.082
0.587,0.196,2.209,-179.932,215.027,-44.373
0.418,0.149,2.487,-205.872,214.478,-34.607
0.209,0.131,2.746,-235.107,227.966,-21.423
-0.038,0.398,3.090,-275.940,257.690,-22.766
-0.279,0.627,3.272,-332.825,294.373,-43.823
-0.432,0.803,3.383,-396.179,326.782,-80.627
-0.525,0.883,3.256,-455.078,346.924,-125.305
-0.670,0.860,2.940,-505.188,348.328,-173.035
-0.759,0.890,2.670,-537.842,340.393,-222.351
-0.940,0.769,2.599,-531.555,339.111,-269.836
-1.041,0.629,2.546,-500.671,348.938,-315.247
-1.071,0.576,2.638,-476.318,362.732,-355.042
-1.250,0.344,2.574,-455.444,383.118,-385.071
-1.396,-0.024,2.163,-447.144,403.015,-416.626
-1.560,-0.430,1.668,-457.214,416.138,-447.754
-1.823,-0.790,1.228,-470.764,424.561,-463.684
-1.806,-0.938,0.850,-478.577,431.641,-475.342
-1.586,-0.880,0.613,-473.328,437.744,-488.464
-1.505,-0.772,0.454,-432.922,436.340,-483.154
-1.558,-0.833,0.296,-370.483,433.289,-466.125
-1.610,-0.964,0.083,-321.594,439.758,-446.838
-1.725,-1.018,-0.006,-307.617,432.739,-427.734
-1.592,-0.947,-0.023,-312.622,413.330,-408.142
-1.595,-0.842,0.013,-304.565,392.639,-385.559
-1.711,-0.735,0.118,-275.696,375.366,-359.070
-1.913,-0.697,0.252,-243.896,361.572,-333.313
-2.277,-0.770,0.350,-221.924,347.778,-315.186
-2.653,-0.907,0.372,-211.731,335.266,-305.847
-2.879,-1.102,0.216,-205.566,327.454,-298.157
-2.996,-1.317,0.008,-195.374,318.542,-290.405
-3.051,-1.520,-0.241,-178.711,305.115,-278.564
-3.112,-1.724,-0.497,-164.001,292.725,-264.832
-3.051,-2.218,-1.078,-145.935,279.053,-250.366
-2.899,-3.004,-1.897,-94.238,230.591,-221.802
-2.747,-3.123,-2.812,-40.955,156.738,-172.607
-2.810,-3.370,-3.579,57.434,43.457,-110.901
-2.947,-3.049,-2.115,158.569,-81.116,-55.481
-2.309,-2.266,-0.629,116.821,-68.787,-1.587
-1.549,-1.467,0.068,56.580,-24.536,35.767
-0.775,-0.802,0.123,36.743,-25.146,43.213
-0.039,-0.414,-0.166,18.433,-23.315,32.837
0.545,-0.186,-0.440,-4.822,-8.850,20.874
0.698,-0.193,-0.576,-15.381,-4.089,12.146
0.469,-0.297,-0.492,-20.630,-8.728,7.690
0.127,-0.447,-0.485,-26.123,-12.451,1.221
-0.252,-0.724,-0.626,-19.836,-14.709,-7.385
-0.561,-0.992,-0.813,-4.456,-20.081,-16.724
-0.754,-1.250,-0.924,8.362,-27.466,-20.569
-0.758,-1.418,-0.898,10.986,-26.428,-16.357
-0.612,-1.386,-0.779,-3.357,-18.555,-4.333
-0.485,-1.184,-0.709,-27.466,-13.611,12.085
-0.283,-0.913,-0.731,-45.959,-11.230,24.170
-0.068,-0.654,-0.699,-51.331,-10.925,26.550
0.026,-0.517,-0.543,-46.753,-11.902,20.813
0.036,-0.511,-0.393,-38.452,-9.705,11.658
-0.019,-0.604,-0.373,-28.748,-4.089,2.502
-0.135,-0.713,-0.474,-21.606,-1.343,-4.089
-0.242,-0.833,-0.618,-18.982,-1.770,-7.202
-0.485,-0.831,-0.766,-15.869,-4.211,-7.568
-0.359,-0.867,-0.542,-6.409,19.592,-2.380
-0.381,-0.880,-0.519,-4.211,10.376,-3.662
-0.347,-0.858,-0.528,-4.089,6.775,-0.549
-0.286,-0.805,-0.544,-4.395,9.705,3.052
-0.269,-0.744,-0.527,-5.920,9.583,2.808
-0.237,-0.696,-0.520,-5.737,10.376,1.953
-0.226,-0.681,-0.500,-5.676,9.949,0.671
-0.218,-0.701,-0.505,-5.493,8.362,0.427
-0.239,-0.732,-0.552,-5.005,6.348,1.038
-0.280,-0.769,-0.593,-4.761,2.991,2.197
-0.311,-0.814,-0.576,-5.798,-0.977,2.869
-0.317,-0.849,-0.555,-6.165,-4.272,3.723
-0.307,-0.859,-0.545,-6.714,-5.920,3.845
-0.285,-0.859,-0.550,-7.996,-5.798,3.418
-0.239,-0.843,-0.537,-9.521,-5.676,2.747
-0.215,-0.824,-0.521,-8.301,-6.165,2.930
-0.194,-0.807,-0.515,-6.958,-4.883,2.136
-0.206,-0.812,-0.515,-4.395,-1.953,2.441
-0.232,-0.812,-0.563,-1.587,-2.502,4.150
-0.268,-0.807,-0.591,-0.549,-3.235,6.348
-0.277,-0.795,-0.595,-2.319,-3.784,6.592
-0.271,-0.798,-0.589,-5.188,-3.662,5.615
-0.271,-0.807,-0.602,-7.385,-3.113,5.066
-0.260,-0.814,-0.594,-9.033,0.000,4.272
-0.255,-0.809,-0.575,-9.644,2.075,3.357
-0.230,-0.812,-0.568,-8.728,0.366,2.502
-0.196,-0.809,-0.540,-6.653,0.122,1.831
-0.194,-0.829,-0.505,-2.991,1.465,2.136
-0.204,-0.834,-0.486,-0.183,2.991,2.136
-0.239,-0.830,-0.497,2.014,4.089,2.625
-0.268,-0.821,-0.527,3.113,4.944,2.380
-0.277,-0.818,-0.572,2.808,4.272,1.221
-0.268,-0.807,-0.563,1.465,2.319,-0.305
-0.265,-0.816,-0.555,-1.038,1.343,-1.404
-0.262,-0.817,-0.558,-3.662,0.854,-1.648
-0.258,-0.814,-0.566,-4.272,0.488,-0.977
-0.281,-0.801,-0.538,-4.822,-0.366,0.122
-0.243,-0.796,-0.508,-4.150,3.601,1.526
-0.251,-0.815,-0.547,-4.456,2.319,1.465
-0.247,-0.815,-0.535,-6.653,-0.793,1.099
-0.260,-0.823,-0.548,-7.751,-1.709,1.160
-0.268,-0.828,-0.547,-6.104,-0.671,1.282
-0.247,-0.838,-0.533,-4.578,1.160,1.404
-0.253,-0.834,-0.532,-5.005,-0.488,1.038
-0.245,-0.819,-0.525,-5.493,-0.671,1.648
-0.250,-0.807,-0.539,-4.761,0.488,2.441
-0.232,-0.822,-0.544,-3.906,1.221,2.319
-0.234,-0.830,-0.543,-3.723,0.366,1.953
-0.225,-0.839,-0.534,-2.808,0.916,2.380
-0.225,-0.844,-0.530,-2.380,0.366,2.502
-0.231,-0.845,-0.528,-1.953,0.793,2.441
-0.241,-0.835,-0.526,-0.549,2.136,2.625
-0.259,-0.814,-0.524,-0.366,2.869,2.747
-0.257,-0.808,-0.530,-0.488,2.991,2.686
-0.247,-0.814,-0.536,-1.465,2.686,1.709
-0.243,-0.822,-0.529,-2.380,2.441,1.160
0.407,0.535,1.802,-72.510,55.054,52.246
0.337,0.679,1.907,-94.421,60.242,48.218
0.309,0.814,2.099,-117.493,68.359,35.339
0.273,0.839,2.277,-133.728,86.121,19.470
0.238,0.790,2.433,-149.719,108.276,2.686
0.177,0.698,2.577,-170.105,131.470,-13.672
0.113,0.643,2.732,-192.810,158.264,-30.579
0.008,0.576,2.865,-219.849,186.890,-44.312
-0.097,0.525,2.929,-252.136,212.952,-58.777
-0.246,0.528,2.985,-290.283,233.337,-75.317
-0.508,0.584,3.044,-328.186,248.535,-94.666
-0.843,0.603,3.044,-363.159,261.841,-125.732
-1.063,0.574,2.902,-401.794,277.710,-175.964
-1.141,0.479,2.629,-430.359,301.392,-233.887
-1.127,0.324,2.272,-434.387,330.444,-284.729
-1.069,0.128,1.996,-420.593,353.271,-322.815
-1.007,0.005,1.813,-400.146,364.319,-345.520
-0.993,-0.070,1.660,-383.423,367.126,-358.459
-0.964,-0.146,1.478,-379.333,369.934,-367.004
-1.005,-0.200,1.361,-379.333,372.253,-367.920
-1.083,-0.114,1.169,-382.568,370.056,-366.211
-1.284,-0.054,1.045,-387.756,364.807,-370.728
-1.495,-0.088,0.969,-392.944,360.596,-385.071
-1.651,-0.200,0.847,-396.851,366.150,-407.471
-1.762,-0.442,0.584,-394.775,376.831,-430.176
-1.829,-0.669,0.254,-391.602,380.920,-449.768
-1.866,-0.949,-0.061,-380.188,376.892,-463.196
-1.922,-1.179,-0.299,-358.032,368.530,-464.722
-1.896,-1.268,-0.493,-333.557,359.192,-453.003
-1.827,-1.242,-0.547,-311.584,346.313,-431.824
-1.820,-1.217,-0.542,-286.743,332.031,-405.518
-1.953,-1.199,-0.485,-263.367,319.031,-376.648
-2.087,-1.184,-0.415,-247.437,310.303,-352.844
-2.178,-1.231,-0.439,-232.117,300.842,-336.975
-2.283,-1.289,-0.508,-216.553,287.537,-325.378
-2.304,-1.320,-0.592,-206.055,272.583,-316.956
-2.321,-1.360,-0.645,-190.002,256.226,-306.763
-2.303,-1.467,-0.808,-163.513,242.615,-296.753
-2.261,-1.648,-0.965,-133.423,225.098,-287.354
-2.168,-2.666,-1.453,-98.083,198.547,-269.470
-1.949,-3.030,-1.624,-51.697,148.315,-219.971
-1.968,-3.677,-2.629,-17.090,90.393,-159.302
-1.844,-3.874,-2.830,71.472,6.958,-85.022
-2.189,-3.296,-1.923,135.254,-58.044,-9.460
-1.870,-2.369,-0.957,96.680,-16.418,51.575
-1.409,-1.554,-0.486,53.467,10.559,89.905
-0.835,-0.895,-0.417,29.907,-6.165,95.764
-0.252,-0.377,-0.291,10.254,-22.461,76.721
0.269,0.013,-0.370,-16.846,-15.808,50.110
0.594,0.159,-0.306,-33.203,-6.104,27.283
0.676,0.037,-0.203,-39.612,-0.732,9.521
0.578,-0.250,-0.150,-44.861,6.226,0.244
0.375,-0.567,-0.237,-49.805,12.024,-4.395
0.114,-0.868,-0.468,-50.232,11.902,-10.193
-0.176,-1.114,-0.759,-40.222,6.226,-13.916
-0.376,-1.360,-0.960,-16.602,-2.380,-13.306
-0.611,-1.513,-1.260,10.498,-7.874,-10.010
-0.471,-1.424,-0.870,18.188,21.423,-2.136
-0.415,-1.242,-0.716,8.606,0.732,2.808
-0.230,-1.052,-0.628,-3.540,1.221,10.376
-0.068,-0.906,-0.607,-10.193,1.892,13.123
0.058,-0.786,-0.613,-9.888,3.113,13.672
0.103,-0.666,-0.568,-10.925,5.920,14.343
0.070,-0.560,-0.501,-13.916,9.216,12.329
0.003,-0.509,-0.447,-16.541,12.756,5.676
-0.036,-0.567,-0.460,-17.456,13.245,-2.502
-0.052,-0.664,-0.525,-17.517,11.169,-8.728
-0.120,-0.788,-0.551,-16.418,8.423,-10.498
-0.172,-0.880,-0.590,-14.648,8.240,-8.850
-0.219,-0.922,-0.605,-14.404,8.179,-5.920
-0.242,-0.923,-0.587,-14.465,7.202,-2.258
-0.239,-0.892,-0.538,-15.564,7.446,-0.305
-0.197,-0.855,-0.486,-14.465,8.057,1.038
-0.159,-0.845,-0.445,-6.836,4.578,3.479
-0.125,-0.848,-0.459,-1.282,2.747,5.737
-0.093,-0.841,-0.493,-2.258,7.385,5.310
-0.101,-0.825,-0.530,-2.991,7.019,4.822
-0.143,-0.816,-0.531,-2.625,1.770,5.432
-0.161,-0.817,-0.543,-2.502,0.244,5.615
-0.159,-0.840,-0.563,-3.052,0.061,5.005
-0.151,-0.865,-0.578,-4.761,-2.625,4.333
-0.160,-0.866,-0.572,-6.348,-5.066,4.456
-0.146,-0.863,-0.540,-7.263,-5.493,4.700
-0.131,-0.859,-0.526,-7.324,-4.761,4.333
-0.130,-0.859,-0.514,-5.615,-5.005,4.456
-0.094,-0.850,-0.535,-3.540,-4.639,4.456
-0.098,-0.845,-0.515,-3.601,-3.479,3.296
-0.098,-0.839,-0.526,-3.540,-2.502,2.380
-0.109,-0.854,-0.555,-1.831,-1.038,1.282
-0.111,-0.862,-0.586,-0.916,0.366,0.549
-0.129,-0.842,-0.597,-1.648,1.038,0.793
-0.133,-0.826,-0.567,-2.625,1.343,1.587
-0.130,-0.830,-0.550,-3.296,0.671,1.892
-0.122,-0.842,-0.547,-3.967,0.732,1.160
-0.131,-0.846,-0.549,-3.967,1.221,0.610
-0.146,-0.852,-0.554,-3.357,1.953,0.366
-0.149,-0.865,-0.570,-1.831,3.052,0.488
-0.138,-0.873,-0.567,-1.709,2.502,0.793
-0.129,-0.863,-0.543,-2.258,2.014,1.953
-0.111,-0.857,-0.524,-1.709,2.625,3.174
-0.116,-0.836,-0.522,-0.977,3.052,3.845
-0.118,-0.813,-0.520,-1.587,3.784,4.028
-0.121,-0.798,-0.516,-2.136,2.930,3.540
-0.129,-0.814,-0.535,-1.282,2.441,3.052
-0.129,-0.843,-0.548,-0.488,2.563,2.319
-0.138,-0.859,-0.552,-0.732,2.563,2.197
-0.144,-0.862,-0.553,-1.648,2.380,2.319
-0.141,-0.876,-0.553,-2.502,2.441,2.747
-0.138,-0.881,-0.553,-2.808,1.465,3.479
-0.142,-0.873,-0.529,-2.808,0.061,4.272
-0.134,-0.867,-0.507,-2.808,-0.427,4.333
-0.126,-0.864,-0.517,-2.380,-0.305,3.723
-0.125,-0.859,-0.541,-1.709,-0.305,3.479
-0.126,-0.843,-0.544,-2.075,-0.427,3.052
-0.126,-0.828,-0.534,-1.892,-0.671,2.563
-0.124,-0.830,-0.522,-1.709,-0.793,1.709
-0.115,-0.845,-0.522,-1.221,-0.305,0.916
-0.125,-0.862,-0.533,-0.854,0.122,0.793
-0.134,-0.876,-0.540,-0.854,0.183,0.916
0.580,0.468,1.544,-31.372,32.715,36.011
0.514,0.533,1.686,-47.913,38.330,40.527
0.440,0.601,1.778,-69.580,46.936,38.635
0.432,0.691,1.774,-97.290,62.500,30.701
0.433,0.765,1.776,-126.404,77.209,20.081
0.459,0.851,1.869,-147.949,90.637,6.653
0.475,1.016,2.011,-164.185,100.708,-8.545
0.354,1.118,2.263,-175.293,114.624,-26.123
0.192,1.094,2.393,-184.814,136.292,-50.171
0.115,1.031,2.383,-209.106,162.476,-81.177
0.073,0.999,2.367,-238.037,187.866,-109.131
-0.009,0.972,2.319,-259.888,208.130,-132.019
-0.129,0.951,2.334,-281.372,216.614,-157.166
-0.225,1.002,2.324,-303.528,221.008,-186.401
-0.336,1.000,2.275,-319.946,231.445,-220.032
-0.364,0.895,2.160,-327.515,252.380,-253.967
-0.397,0.815,2.180,-326.538,276.184,-280.518
-0.528,0.852,2.318,-325.378,294.983,-302.246
-0.779,0.853,2.491,-330.994,317.566,-327.393
-0.920,0.824,2.497,-351.746,350.586,-366.089
-0.980,0.734,2.246,-385.132,388.123,-408.691
-0.934,0.508,1.779,-410.339,412.781,-444.092
-0.853,0.271,1.228,-413.635,422.729,-468.811
-0.785,0.187,0.923,-400.879,421.082,-475.830
-0.847,0.145,0.765,-374.939,413.818,-468.689
-0.931,0.182,0.709,-350.952,405.212,-463.196
-1.100,0.299,0.609,-346.558,396.973,-465.027
-1.237,0.243,0.453,-342.712,389.465,-474.304
-1.331,-0.022,0.150,-317.261,382.202,-483.826
-1.441,-0.407,-0.138,-287.720,369.751,-487.549
-1.474,-0.712,-0.330,-268.311,353.577,-478.394
-1.442,-0.837,-0.366,-251.099,335.144,-455.872
-1.419,-0.758,-0.238,-233.093,317.932,-423.828
-1.505,-0.655,-0.029,-218.140,307.922,-388.489
-1.698,-0.526,0.150,-207.886,301.575,-357.971
-2.032,-0.516,0.289,-197.693,292.603,-334.717
-2.344,-0.601,0.256,-183.350,282.227,-324.097
-2.355,-0.788,0.086,-173.828,275.696,-322.632
-2.281,-1.055,-0.147,-159.119,268.555,-316.650
-2.167,-1.270,-0.347,-139.282,254.700,-299.561
-2.073,-1.384,-0.501,-122.620,234.375,-271.545
-2.066,-1.435,-0.592,-109.253,213.074,-240.906
-2.103,-1.536,-0.680,-94.116,190.552,-212.097
-1.992,-1.572,-0.712,-79.773,166.748,-186.279
-1.929,-1.551,-0.627,-60.974,143.555,-158.081
-1.962,-1.656,-0.571,-39.063,121.216,-128.845
-1.752,-1.820,-0.684,-22.400,97.595,-104.004
-1.612,-1.959,-0.717,-11.047,68.115,-78.430
-1.324,-1.911,-0.879,-11.536,47.852,-50.476
-1.131,-1.716,-0.962,-2.869,24.170,-18.860
-1.017,-1.479,-0.965,20.874,-2.258,7.141
-0.887,-1.249,-0.830,41.260,-20.691,21.484
-0.676,-1.068,-0.671,47.668,-28.015,27.039
-0.497,-0.969,-0.498,43.762,-30.090,27.954
-0.384,-0.969,-0.422,35.278,-28.381,26.794
-0.297,-0.971,-0.573,23.437,-19.775,25.574
-0.279,-0.950,-0.705,6.165,-13.550,25.513
-0.331,-0.926,-0.770,-8.972,-15.991,23.926
-0.358,-0.961,-0.759,-17.151,-19.836,18.982
-0.328,-1.022,-0.681,-19.348,-19.043,14.709
-0.307,-1.035,-0.582,-20.874,-16.235,13.184
-0.278,-0.992,-0.538,-24.048,-15.503,12.695
-0.217,-0.917,-0.556,-27.222,-13.916,12.024
-0.348,-0.848,-0.605,-22.949,-15.808,10.803
-0.067,-0.817,-0.418,-11.353,14.038,10.193
-0.126,-0.841,-0.489,-12.146,16.602,5.981
-0.200,-0.804,-0.491,-10.498,5.310,3.906
-0.250,-0.798,-0.538,-8.789,7.812,3.296
-0.286,-0.829,-0.549,-5.859,10.071,2.869
-0.317,-0.830,-0.536,-6.836,9.644,2.014
-0.321,-0.803,-0.523,-8.911,9.949,3.540
-0.308,-0.786,-0.489,-9.888,10.193,5.127
-0.270,-0.785,-0.457,-8.911,10.681,6.226
-0.245,-0.770,-0.438,-7.568,11.353,7.935
-0.227,-0.768,-0.414,-7.751,9.521,8.911
-0.212,-0.779,-0.401,-7.568,6.775,7.996
-0.233,-0.812,-0.424,-4.700,4.395,7.996
-0.259,-0.812,-0.460,-2.686,2.014,7.629
-0.288,-0.831,-0.447,-2.686,0.977,6.958
-0.299,-0.851,-0.443,-1.831,-0.183,6.775
-0.293,-0.880,-0.451,0.305,-0.427,7.202
-0.282,-0.895,-0.480,0.549,-0.977,7.812
-0.285,-0.888,-0.508,-0.488,-2.380,8.240
-0.282,-0.864,-0.543,-1.099,-3.662,8.484
-0.245,-0.855,-0.526,-2.930,-6.042,8.606
-0.225,-0.838,-0.513,-3.906,-7.690,9.033
-0.205,-0.823,-0.506,-4.150,-8.118,8.667
-0.188,-0.831,-0.495,-4.272,-5.859,7.935
-0.185,-0.851,-0.504,-2.869,-5.310,8.362
-0.191,-0.856,-0.492,-3.235,-5.127,8.911
-0.208,-0.867,-0.521,-5.310,-7.019,9.033
-0.245,-0.871,-0.539,-5.798,-8.667,8.423
-0.262,-0.868,-0.496,-4.211,-7.141,7.629
-0.260,-0.877,-0.511,-4.272,-6.287,6.226
-0.270,-0.890,-0.527,-4.822,-6.165,6.226
-0.248,-0.885,-0.521,-5.188,-5.310,6.531
-0.226,-0.887,-0.516,-4.700,-2.686,6.958
-0.215,-0.875,-0.509,-5.676,-0.183,6.897
-0.205,-0.843,-0.493,-6.104,0.000,7.751
-0.175,-0.805,-0.490,-6.348,0.916,7.507
-0.222,-0.829,-0.438,-2.747,0.061,6.958
-0.210,-0.830,-0.440,-1.648,0.916,5.859
-0.207,-0.852,-0.456,-2.686,2.991,4.761
-0.217,-0.869,-0.475,-2.625,2.991,3.601
-0.230,-0.874,-0.480,-1.953,2.502,3.052
-0.250,-0.867,-0.473,-1.953,2.686,2.258
-0.238,-0.879,-0.482,-1.160,2.747,2.197
-0.228,-0.861,-0.479,-1.465,1.343,2.563
-0.233,-0.847,-0.471,-1.587,1.038,2.625
-0.240,-0.849,-0.477,-1.526,1.038,3.357
-0.241,-0.841,-0.452,-3.540,-0.793,2.869
-0.202,-0.845,-0.429,-4.639,-1.343,2.197
