aX,aY,aZ,gX,gY,gZ
1.031,-0.158,-2.822,62.866,-2.869,-45.044
1.042,-0.252,-2.991,94.604,-17.517,-41.565
1.006,-0.310,-3.097,127.197,-33.752,-32.410
0.937,-0.312,-3.119,158.813,-51.880,-21.179
0.834,-0.307,-3.075,190.552,-68.909,-12.146
0.738,-0.288,-3.002,221.436,-82.642,-6.348
0.613,-0.276,-2.899,250.671,-95.764,-4.456
0.480,-0.284,-2.770,280.212,-108.948,-6.531
0.381,-0.316,-2.604,310.608,-124.512,-11.963
0.279,-0.390,-2.386,337.463,-142.456,-20.386
0.190,-0.491,-2.133,359.802,-161.560,-28.259
0.121,-0.580,-1.876,376.770,-179.138,-34.058
0.034,-0.673,-1.624,389.709,-195.374,-37.109
-0.009,-0.733,-1.345,398.926,-210.999,-39.185
-0.026,-0.804,-1.023,402.039,-225.586,-40.161
-0.041,-0.834,-0.735,396.545,-236.633,-39.246
-0.063,-0.821,-0.477,384.644,-245.544,-37.598
-0.098,-0.789,-0.217,371.033,-253.723,-36.743
-0.098,-0.815,0.052,358.032,-257.935,-38.269
-0.082,-0.866,0.322,345.215,-258.850,-41.565
-0.047,-0.893,0.536,328.918,-254.883,-41.138
-0.008,-0.940,0.683,307.861,-243.591,-35.645
0.040,-0.944,0.762,286.011,-229.492,-26.306
0.051,-0.939,0.812,268.677,-214.661,-16.357
0.027,-0.890,0.854,255.920,-198.425,-7.751
-0.000,-0.839,0.934,246.887,-187.805,-4.333
-0.007,-0.827,1.053,238.098,-183.289,-7.629
0.007,-0.845,1.185,225.769,-181.763,-13.916
0.022,-0.859,1.317,210.754,-183.044,-17.090
0.041,-0.879,1.488,194.580,-183.167,-15.320
0.028,-0.871,1.632,177.368,-175.903,-10.986
0.016,-0.832,1.713,159.973,-161.255,-6.714
0.010,-0.781,1.716,143.494,-143.616,-3.967
0.005,-0.746,1.673,126.892,-128.418,-2.136
-0.015,-0.721,1.602,110.901,-116.882,0.549
-0.032,-0.648,1.535,96.252,-111.206,1.404
-0.082,-0.579,1.491,82.642,-108.215,0.244
-0.104,-0.542,1.439,69.458,-103.699,-3.174
-0.110,-0.530,1.385,56.213,-97.107,-9.644
-0.105,-0.529,1.321,45.776,-89.539,-16.846
-0.101,-0.503,1.267,39.429,-81.482,-22.095
-0.109,-0.484,1.236,36.011,-75.073,-26.245
-0.113,-0.451,1.227,34.119,-70.740,-31.006
-0.064,-0.419,1.259,33.386,-67.200,-35.217
-0.025,-0.421,1.300,31.372,-61.401,-37.170
0.012,-0.430,1.329,28.198,-52.063,-36.133
0.044,-0.403,1.349,26.855,-40.222,-32.776
0.098,-0.386,1.334,25.757,-25.146,-29.358
0.155,-0.364,1.299,23.437,-10.803,-26.733
0.203,-0.351,1.253,18.982,-0.183,-23.560
0.248,-0.335,1.204,12.451,6.714,-20.386
0.293,-0.304,1.166,5.371,9.094,-17.395
0.321,-0.298,1.124,-0.793,9.277,-14.771
0.358,-0.279,1.079,-6.226,9.827,-12.329
0.388,-0.260,1.039,-8.667,11.963,-9.033
0.418,-0.226,1.002,-9.033,16.418,-5.554
0.435,-0.190,0.969,-8.362,21.240,-2.014
0.438,-0.167,0.938,-8.484,25.513,1.160
0.447,-0.147,0.908,-8.118,28.992,3.662
0.452,-0.126,0.867,-7.690,32.166,6.165
0.447,-0.108,0.830,-6.653,34.180,7.935
0.442,-0.091,0.810,-4.639,34.180,9.033
0.447,-0.071,0.815,-2.441,32.837,9.216
0.453,-0.059,0.821,-1.648,32.043,8.362
0.458,-0.048,0.810,-2.563,31.738,7.263
0.472,-0.036,0.801,-2.930,30.334,6.104
0.492,-0.036,0.806,-2.686,28.687,4.700
0.507,-0.039,0.806,-2.808,28.381,3.784
0.520,-0.046,0.794,-2.869,28.625,3.601
0.539,-0.040,0.785,-2.380,28.442,3.418
0.554,-0.033,0.770,-1.343,27.771,2.625
0.582,-0.025,0.757,-0.671,26.428,1.343
0.603,-0.030,0.751,-0.488,24.109,0.000
0.627,-0.046,0.750,-0.916,21.484,-0.977
0.646,-0.066,0.743,-2.014,19.897,-1.221
0.704,-0.116,0.745,-2.197,20.264,0.305
0.733,-0.151,0.734,0.366,24.963,4.272
0.738,-0.131,0.705,4.028,30.945,11.292
0.699,-0.092,0.713,5.066,31.311,17.334
0.657,-0.057,0.726,4.761,28.625,18.799
0.633,-0.046,0.736,3.967,26.123,16.357
0.617,-0.046,0.750,2.197,23.010,13.855
0.613,-0.038,0.753,0.244,19.592,12.207
0.608,-0.033,0.766,-0.977,16.479,11.414
0.603,-0.023,0.773,-0.977,15.259,11.230
0.601,-0.014,0.776,-0.793,15.869,11.169
0.593,-0.009,0.772,-0.244,17.578,11.108
0.592,-0.010,0.765,0.610,20.325,11.536
0.577,-0.004,0.757,0.977,23.132,12.146
0.565,0.010,0.746,2.380,26.001,11.902
0.554,0.018,0.745,3.784,27.893,10.925
0.564,0.023,0.726,3.967,29.419,8.118
0.582,0.009,0.701,2.991,28.931,4.883
0.607,-0.009,0.695,2.258,25.574,2.319
0.634,-0.032,0.702,1.526,21.118,0.610
0.655,-0.056,0.709,-0.305,16.602,0.366
0.686,-0.071,0.728,-2.686,12.085,1.038
0.694,-0.072,0.738,-4.578,9.399,3.235
0.689,-0.058,0.737,-5.676,8.789,5.676
0.672,-0.034,0.741,-5.615,8.240,6.653
0.662,-0.019,0.744,-5.676,7.324,6.104
0.648,-0.005,0.742,-5.676,6.775,4.150
0.631,-0.010,0.729,-6.042,6.531,2.380
0.627,-0.007,0.726,-6.775,3.296,0.427
0.631,-0.018,0.726,-7.568,-0.488,-2.197
0.657,-0.041,0.740,-7.507,-2.991,-3.235
0.674,-0.058,0.764,-7.446,-4.211,-2.441
0.685,-0.066,0.771,-8.240,-3.113,-0.427
0.675,-0.067,0.779,-8.850,-2.075,2.014
0.667,-0.073,0.781,-8.423,-0.610,3.845
0.664,-0.061,0.778,-7.507,1.221,4.578
0.675,-0.064,0.789,-7.629,2.258,4.944
0.683,-0.086,0.785,-9.277,4.150,5.249
0.687,-0.090,0.754,-10.925,6.775,7.202
0.676,-0.079,0.728,-11.780,8.057,9.949
0.669,-0.069,0.706,-11.292,7.996,11.658
0.673,-0.058,0.704,-9.705,7.507,12.390
0.677,-0.045,0.702,-8.362,7.324,12.939
0.678,-0.043,0.693,-6.958,6.897,13.245
-0.447,-0.296,-2.738,302.124,-42.725,-87.341
-0.473,-0.387,-2.497,316.589,-75.012,-100.769
-0.447,-0.497,-2.189,326.721,-108.276,-109.253
-0.414,-0.571,-1.866,333.801,-136.780,-113.831
-0.386,-0.624,-1.559,339.783,-157.288,-116.089
-0.333,-0.642,-1.280,342.468,-172.424,-119.507
-0.235,-0.652,-1.000,340.027,-186.707,-126.343
-0.104,-0.695,-0.697,337.708,-200.500,-133.484
-0.010,-0.764,-0.394,337.830,-209.229,-137.573
0.112,-0.829,-0.113,337.097,-209.167,-137.878
0.230,-0.905,0.147,334.900,-203.796,-134.583
0.327,-0.901,0.338,328.430,-193.481,-126.648
0.425,-0.882,0.473,320.923,-180.603,-116.638
0.516,-0.902,0.632,315.186,-169.189,-107.666
0.596,-0.896,0.714,305.054,-155.518,-97.412
0.673,-0.864,0.791,296.326,-143.555,-86.426
0.713,-0.878,0.898,291.870,-134.705,-76.477
0.729,-0.858,0.989,284.607,-125.305,-67.505
0.717,-0.824,1.115,273.193,-121.399,-60.974
0.714,-0.828,1.255,253.235,-121.460,-59.753
0.714,-0.831,1.339,227.600,-118.713,-56.641
0.696,-0.778,1.361,204.834,-110.535,-49.744
0.653,-0.718,1.360,190.552,-97.046,-42.786
0.599,-0.681,1.322,179.932,-83.191,-37.109
0.563,-0.652,1.258,167.664,-71.655,-34.851
0.540,-0.617,1.156,154.724,-63.049,-33.386
0.522,-0.565,1.057,146.423,-58.228,-31.311
0.505,-0.512,0.978,143.982,-56.946,-31.616
0.499,-0.493,0.905,143.860,-57.434,-34.546
0.493,-0.493,0.859,144.226,-60.364,-40.039
0.509,-0.491,0.862,143.188,-65.857,-49.316
0.577,-0.531,0.941,140.625,-71.960,-59.387
0.665,-0.635,1.052,132.874,-78.430,-66.101
0.728,-0.646,1.128,117.737,-80.139,-64.453
0.762,-0.595,1.155,102.234,-74.280,-56.274
0.760,-0.528,1.161,93.140,-64.636,-48.035
0.760,-0.459,1.161,88.013,-54.260,-40.527
0.737,-0.402,1.154,83.008,-46.021,-34.790
0.708,-0.344,1.134,77.332,-40.527,-30.273
0.684,-0.300,1.097,73.364,-36.377,-27.344
0.653,-0.265,1.044,72.632,-32.104,-25.635
0.644,-0.220,1.000,75.012,-26.611,-24.231
0.635,-0.206,0.952,77.820,-18.982,-24.109
0.625,-0.191,0.896,77.454,-11.658,-23.071
0.621,-0.156,0.867,74.402,-6.592,-22.217
0.626,-0.131,0.842,66.223,-3.418,-22.705
0.650,-0.108,0.833,54.504,-3.845,-23.315
0.665,-0.109,0.831,42.419,-6.836,-23.682
0.680,-0.108,0.834,32.104,-8.118,-23.315
0.700,-0.117,0.829,24.902,-5.981,-22.644
0.717,-0.132,0.792,19.592,-0.427,-21.484
0.724,-0.140,0.711,17.456,6.470,-19.958
0.747,-0.106,0.635,19.531,11.230,-18.799
0.765,-0.084,0.587,23.560,13.428,-18.555
0.782,-0.068,0.528,26.428,14.893,-18.738
0.798,-0.075,0.501,28.992,11.780,-19.470
0.814,-0.099,0.502,30.151,5.737,-19.653
0.827,-0.133,0.519,29.602,-0.610,-18.982
0.870,-0.167,0.559,26.733,-6.470,-17.700
1.051,-0.323,0.527,25.085,-4.883,-16.663
1.052,-0.306,0.443,31.128,8.118,-8.911
0.980,-0.211,0.559,32.227,3.052,2.625
0.941,-0.183,0.573,24.109,-1.892,2.014
0.929,-0.185,0.584,15.381,-5.493,-0.183
0.890,-0.179,0.624,9.827,-9.583,1.587
0.843,-0.130,0.651,7.874,-7.141,4.761
0.796,-0.092,0.640,7.874,-1.221,6.592
0.764,-0.061,0.624,8.789,3.723,7.263
0.741,-0.038,0.597,9.949,6.470,7.141
0.748,-0.037,0.603,9.399,4.578,7.568
0.716,-0.014,0.647,3.296,-4.150,8.667
0.712,-0.015,0.665,-2.258,-9.521,6.226
0.706,-0.040,0.684,-5.493,-10.132,3.174
0.730,-0.067,0.638,-2.991,-0.977,-0.366
0.796,-0.108,0.578,2.991,11.047,-0.854
0.837,-0.127,0.540,6.470,15.564,0.977
0.839,-0.136,0.524,6.653,14.404,3.113
0.813,-0.122,0.533,4.456,8.606,4.578
0.790,-0.112,0.538,2.869,4.456,4.639
0.779,-0.120,0.547,3.113,2.808,3.845
0.778,-0.121,0.575,2.563,0.549,2.625
0.780,-0.128,0.599,0.610,-2.258,2.136
0.778,-0.141,0.621,-0.244,-3.540,2.380
0.772,-0.147,0.627,1.160,-1.221,3.540
0.773,-0.128,0.615,3.723,3.052,5.371
0.774,-0.109,0.600,5.798,5.859,6.531
0.777,-0.111,0.593,6.287,5.798,6.348
0.785,-0.123,0.599,5.432,3.784,5.981
0.788,-0.119,0.606,4.517,2.747,6.592
0.792,-0.116,0.610,4.700,3.723,7.263
0.795,-0.113,0.599,4.700,5.615,7.690
0.791,-0.108,0.575,4.883,7.507,8.240
0.792,-0.108,0.556,5.127,8.850,8.484
0.784,-0.093,0.525,5.798,11.047,8.850
0.778,-0.081,0.503,7.141,12.207,8.423
0.776,-0.069,0.503,7.263,10.376,6.653
0.767,-0.053,0.511,5.676,6.287,5.005
0.769,-0.055,0.539,4.150,1.221,2.686
0.783,-0.069,0.564,2.563,-2.014,0.610
0.798,-0.080,0.581,1.831,-2.930,0.000
0.810,-0.101,0.589,1.892,-2.075,0.244
0.818,-0.114,0.578,1.953,0.427,1.282
0.814,-0.108,0.549,1.831,3.235,2.686
0.809,-0.104,0.524,1.648,4.089,2.991
0.821,-0.110,0.527,2.197,2.747,1.831
0.829,-0.112,0.534,2.686,1.709,1.099
0.833,-0.113,0.531,3.479,1.709,0.793
0.834,-0.113,0.531,4.456,1.709,0.671
0.832,-0.116,0.531,5.005,1.526,0.854
0.831,-0.115,0.526,4.395,1.038,1.404
0.838,-0.125,0.529,3.113,-0.488,1.526
0.831,-0.133,0.545,2.075,-2.686,2.380
0.812,-0.125,0.563,2.502,-2.991,3.906
0.794,-0.109,0.576,3.235,-1.892,4.639
0.785,-0.092,0.571,2.930,-0.061,3.967
0.785,-0.088,0.569,2.014,-0.061,2.625
0.780,-0.090,0.567,0.916,-0.854,1.404
0.774,-0.095,0.570,0.366,-1.587,0.000
0.776,-0.103,0.568,0.244,-1.221,-1.648
-0.282,0.015,-3.133,262.085,-71.350,-114.502
-0.334,-0.129,-3.107,300.110,-76.965,-134.094
-0.387,-0.279,-3.031,334.473,-79.895,-147.949
-0.415,-0.394,-2.896,362.976,-84.167,-155.334
-0.459,-0.454,-2.757,380.920,-91.187,-158.203
-0.533,-0.485,-2.603,391.357,-100.403,-158.875
-0.600,-0.471,-2.473,397.888,-109.131,-160.522
-0.664,-0.465,-2.357,405.334,-116.821,-165.955
-0.674,-0.497,-2.233,417.175,-125.671,-174.194
-0.713,-0.525,-2.080,431.213,-139.709,-184.814
-0.709,-0.632,-1.825,445.984,-161.865,-198.792
-0.670,-0.829,-1.465,456.726,-187.195,-213.684
-0.579,-1.035,-1.041,458.557,-207.397,-222.534
-0.467,-1.104,-0.614,441.467,-219.849,-220.398
-0.319,-1.154,-0.225,409.607,-232.056,-214.355
-0.164,-1.226,0.148,369.995,-245.178,-206.665
0.017,-1.296,0.440,331.665,-245.178,-191.406
0.182,-1.326,0.634,306.946,-228.882,-169.373
0.302,-1.377,0.832,303.345,-204.163,-147.888
0.405,-1.395,0.954,309.082,-171.631,-130.371
0.505,-1.396,0.996,313.049,-138.123,-115.784
0.598,-1.426,1.005,311.340,-113.953,-104.980
0.689,-1.485,1.064,306.030,-105.164,-96.985
0.743,-1.552,1.210,293.274,-110.840,-89.844
0.736,-1.571,1.381,270.264,-117.981,-80.322
0.702,-1.528,1.540,243.164,-116.333,-71.838
0.710,-1.512,1.616,213.989,-102.051,-67.444
0.712,-1.487,1.555,184.204,-77.209,-61.279
0.671,-1.410,1.436,156.982,-54.077,-52.429
0.624,-1.325,1.321,136.475,-39.917,-44.678
0.547,-1.266,1.244,119.812,-33.752,-40.344
0.486,-1.216,1.128,102.356,-30.334,-37.659
0.453,-1.162,1.015,88.257,-28.992,-38.635
0.464,-1.142,0.931,78.979,-32.837,-42.236
0.508,-1.126,0.876,72.449,-38.269,-46.021
0.572,-1.141,0.849,67.261,-43.884,-48.950
0.637,-1.104,0.866,65.613,-46.265,-49.316
0.706,-1.051,0.896,67.993,-41.443,-49.133
0.780,-1.054,0.950,69.580,-34.851,-47.058
0.857,-1.018,1.002,64.941,-29.541,-40.283
0.874,-0.943,1.046,54.321,-26.672,-28.870
0.851,-0.853,1.073,44.006,-21.301,-16.235
0.819,-0.768,1.055,36.316,-12.146,-6.958
0.780,-0.691,1.012,29.419,-2.319,-0.610
0.723,-0.604,0.925,22.400,7.446,6.653
0.667,-0.479,0.818,18.066,15.381,13.245
0.598,-0.387,0.708,15.503,20.020,16.357
0.561,-0.312,0.585,12.939,21.851,14.648
0.567,-0.271,0.491,11.902,18.982,9.460
0.606,-0.256,0.443,12.634,12.756,3.540
0.668,-0.253,0.441,15.259,5.920,-1.831
0.714,-0.250,0.476,17.822,1.160,-5.005
0.747,-0.240,0.524,19.287,-1.343,-6.104
0.771,-0.231,0.591,18.005,-2.441,-5.859
0.801,-0.225,0.636,12.390,-2.441,-5.127
0.823,-0.219,0.663,3.906,-2.258,-3.662
0.829,-0.199,0.673,-3.540,0.122,-0.854
0.831,-0.177,0.657,-7.629,6.836,2.625
0.839,-0.155,0.616,-8.850,14.465,4.883
0.832,-0.114,0.550,-9.827,20.203,7.141
0.812,-0.081,0.495,-10.315,21.912,7.629
0.823,-0.096,0.445,-8.301,20.081,5.615
0.834,-0.087,0.426,-7.568,16.418,3.235
0.841,-0.085,0.411,-6.714,14.404,1.892
0.852,-0.084,0.401,-5.737,13.306,0.916
0.864,-0.089,0.389,-6.470,11.841,-0.305
0.878,-0.108,0.410,-8.484,7.019,-1.770
0.887,-0.126,0.438,-11.230,2.625,-2.197
0.893,-0.136,0.451,-12.451,1.648,-2.075
0.892,-0.137,0.466,-12.268,1.831,-2.258
0.899,-0.149,0.479,-11.719,2.441,-2.136
0.898,-0.171,0.473,-11.475,3.418,-1.221
0.880,-0.177,0.458,-11.108,3.662,0.977
0.867,-0.174,0.453,-9.521,3.845,3.174
0.852,-0.175,0.440,-7.080,5.920,4.883
0.844,-0.168,0.436,-4.578,11.292,6.165
0.825,-0.149,0.378,-1.160,19.775,6.409
0.829,-0.141,0.370,4.333,18.677,5.676
0.847,-0.143,0.385,6.836,13.062,3.479
0.872,-0.179,0.431,5.554,4.700,0.183
0.895,-0.213,0.480,3.113,-0.977,-1.343
0.899,-0.228,0.527,1.160,-2.625,-0.610
0.919,-0.236,0.552,-1.343,-2.380,0.916
0.907,-0.253,0.556,-4.639,-1.404,3.723
0.900,-0.235,0.535,-7.446,1.404,8.423
0.872,-0.203,0.516,-8.362,5.249,12.634
0.852,-0.181,0.485,-8.606,8.423,14.526
0.813,-0.153,0.473,-9.277,9.216,13.916
0.800,-0.132,0.438,-8.545,10.132,12.573
0.788,-0.124,0.427,-6.104,9.705,9.460
0.809,-0.130,0.440,-3.845,6.836,5.310
0.823,-0.142,0.447,-2.808,4.028,2.563
0.836,-0.147,0.453,-2.686,3.052,0.671
0.857,-0.143,0.453,-2.258,3.479,0.366
0.867,-0.138,0.441,-0.732,6.653,0.977
0.866,-0.121,0.419,0.366,8.972,2.197
0.860,-0.111,0.413,0.183,7.690,2.563
0.854,-0.114,0.432,-1.221,3.296,1.831
0.850,-0.122,0.455,-2.747,-0.488,0.854
0.846,-0.132,0.473,-2.563,-1.526,-0.061
0.849,-0.143,0.480,-1.282,-0.366,-0.732
0.847,-0.150,0.483,-0.183,0.793,-0.427
0.834,-0.141,0.470,-0.610,2.075,0.366
0.827,-0.131,0.457,-1.770,2.502,0.061
0.829,-0.136,0.443,-3.540,1.221,-1.648
0.842,-0.147,0.441,-4.395,-0.366,-2.686
0.850,-0.161,0.435,-3.723,-1.038,-2.747
0.847,-0.161,0.448,-1.770,-2.014,-2.014
0.842,-0.153,0.475,0.732,-2.747,-1.831
0.838,-0.155,0.497,2.075,-2.991,-2.380
0.852,-0.172,0.519,2.258,-3.296,-3.113
0.862,-0.178,0.530,1.404,-2.075,-2.441
0.857,-0.167,0.527,-0.732,0.366,-1.038
0.852,-0.154,0.500,-3.540,2.625,0.000
0.850,-0.153,0.473,-6.165,3.296,-0.122
0.856,-0.162,0.463,-6.897,2.930,-1.038
0.849,-0.160,0.457,-6.714,3.174,-1.526
0.847,-0.158,0.445,-5.432,3.540,-2.319
0.855,-0.157,0.434,-3.601,2.869,-3.174
-0.370,0.474,-3.126,171.631,80.688,-67.505
-0.498,0.449,-3.224,203.735,67.078,-82.581
-0.628,0.402,-3.240,234.680,45.776,-100.098
-0.734,0.330,-3.209,262.939,21.362,-121.277
-0.847,0.216,-3.163,288.635,-3.418,-146.851
-0.906,0.074,-3.074,315.247,-26.001,-175.598
-0.940,-0.092,-2.958,345.032,-46.143,-207.214
-0.914,-0.290,-2.796,377.075,-65.247,-237.915
-0.828,-0.531,-2.565,406.250,-86.914,-263.977
-0.739,-0.740,-2.289,425.354,-112.854,-280.457
-0.651,-0.920,-1.973,436.462,-142.029,-286.499
-0.535,-1.025,-1.623,439.453,-171.265,-285.889
-0.407,-1.152,-1.239,437.012,-199.463,-283.020
-0.259,-1.304,-0.797,433.167,-227.600,-277.466
-0.089,-1.455,-0.304,418.152,-249.146,-266.602
0.048,-1.523,0.123,387.207,-257.751,-247.009
0.161,-1.457,0.417,348.267,-250.488,-218.994
0.233,-1.357,0.566,318.176,-227.417,-193.604
0.307,-1.303,0.636,306.885,-194.336,-175.659
0.405,-1.347,0.696,308.838,-164.062,-164.246
0.513,-1.430,0.835,311.584,-147.644,-152.710
0.551,-1.412,0.997,300.903,-142.761,-138.428
0.568,-1.401,1.178,282.593,-144.531,-126.526
0.628,-1.406,1.402,260.681,-145.935,-119.202
0.667,-1.445,1.550,235.901,-139.526,-113.037
0.717,-1.432,1.639,211.243,-123.535,-101.746
0.728,-1.377,1.625,190.247,-97.290,-88.074
0.715,-1.284,1.544,174.622,-69.946,-75.256
0.697,-1.209,1.478,161.987,-50.232,-68.237
0.705,-1.190,1.440,146.729,-41.260,-66.772
0.731,-1.186,1.381,126.648,-38.208,-65.125
0.755,-1.191,1.360,107.788,-39.124,-61.951
0.776,-1.170,1.349,94.238,-36.621,-57.434
0.787,-1.137,1.286,85.266,-26.550,-51.025
0.777,-1.071,1.185,78.064,-13.123,-44.189
0.780,-1.000,1.094,71.838,-3.357,-39.001
0.797,-0.954,1.009,64.392,1.099,-36.133
0.827,-0.913,0.975,55.786,0.061,-33.447
0.854,-0.865,0.966,47.180,-2.380,-29.602
0.868,-1.149,1.183,40.283,-1.831,-27.222
1.289,-1.650,1.298,44.495,25.940,-76.416
1.602,-1.547,1.156,33.508,10.498,-69.885
1.314,-1.265,1.099,10.315,-2.441,-7.996
0.994,-0.789,1.070,2.991,4.761,44.495
0.745,-0.470,0.779,-14.893,26.794,69.824
0.700,-0.333,0.552,-18.250,51.636,80.566
0.580,-0.030,0.443,-26.489,46.509,74.585
0.572,0.069,0.403,-35.950,29.541,56.396
0.617,0.111,0.412,-37.842,18.982,41.565
0.656,0.128,0.377,-29.602,21.973,29.114
0.706,0.142,0.339,-16.968,29.236,22.522
0.722,0.173,0.348,-7.446,27.893,19.226
0.745,0.186,0.384,-2.563,24.231,17.212
0.772,0.208,0.389,-2.625,23.804,16.418
0.803,0.228,0.335,-5.249,27.466,16.418
0.828,0.231,0.277,-6.836,29.785,14.954
0.849,0.217,0.224,-6.531,30.273,12.817
0.865,0.200,0.179,-5.066,28.076,10.132
0.875,0.177,0.172,-2.869,21.545,7.568
0.881,0.155,0.192,-0.244,13.611,4.517
0.891,0.115,0.217,2.197,7.996,0.854
0.912,0.081,0.230,4.700,4.517,-2.319
0.933,0.053,0.264,7.385,0.549,-4.578
0.957,0.016,0.311,9.766,-3.235,-6.470
0.977,-0.021,0.351,10.559,-5.859,-6.958
0.995,-0.051,0.389,9.094,-8.301,-6.653
1.007,-0.083,0.431,6.958,-9.399,-5.005
1.004,-0.084,0.456,5.188,-7.385,-3.479
0.997,-0.089,0.443,3.174,-3.662,-1.831
0.983,-0.088,0.434,2.014,-1.587,0.366
0.967,-0.080,0.432,1.221,-1.526,2.136
0.951,-0.080,0.449,0.061,-3.662,2.869
0.941,-0.092,0.467,-1.709,-5.920,3.601
0.930,-0.100,0.473,-3.052,-6.470,5.310
0.917,-0.088,0.467,-3.357,-4.272,7.446
0.897,-0.064,0.454,-2.197,-0.366,9.216
0.886,-0.046,0.434,-0.916,2.808,9.827
0.883,-0.041,0.425,-1.404,3.174,9.216
0.878,-0.040,0.434,-3.418,1.038,8.850
0.878,-0.047,0.448,-5.676,-1.038,8.789
0.854,-0.037,0.451,-7.751,-1.038,8.545
0.841,-0.028,0.430,-8.301,1.770,8.972
0.821,-0.005,0.400,-7.996,5.066,8.972
0.807,0.005,0.383,-7.202,5.737,7.202
0.812,0.001,0.389,-6.714,3.540,3.845
0.828,-0.010,0.404,-7.019,0.549,0.732
0.846,-0.030,0.418,-7.263,-0.793,-1.404
0.858,-0.036,0.423,-7.019,-0.244,-1.282
0.864,-0.024,0.410,-6.042,1.892,-0.366
0.872,-0.024,0.401,-5.005,3.601,-0.061
0.883,-0.034,0.402,-4.883,3.784,-0.183
0.897,-0.032,0.396,-6.531,3.418,0.061
0.902,-0.030,0.395,-7.874,2.563,0.183
0.914,-0.029,0.406,-7.629,1.282,-0.671
0.926,-0.037,0.422,-7.874,-0.549,-1.953
0.933,-0.046,0.431,-9.155,-2.075,-2.441
0.935,-0.052,0.436,-10.620,-2.991,-1.892
0.933,-0.053,0.437,-11.780,-3.052,-0.549
0.927,-0.057,0.433,-13.000,-2.197,0.671
0.918,-0.054,0.425,-13.550,-1.160,2.258
0.904,-0.036,0.413,-13.367,-0.366,3.662
0.898,-0.030,0.405,-12.939,-0.549,3.967
0.892,-0.026,0.409,-12.573,-1.587,4.028
0.883,-0.016,0.409,-11.719,-1.038,4.517
0.863,0.009,0.403,-9.949,1.221,4.578
0.863,0.021,0.379,-8.545,3.723,4.150
0.858,0.029,0.368,-8.179,3.784,2.380
0.865,0.026,0.357,-8.667,2.136,0.610
0.866,0.030,0.359,-10.315,-0.244,-0.549
0.867,0.030,0.366,-11.902,-1.892,-1.526
0.874,0.015,0.370,-11.414,-2.136,-2.502
0.881,0.004,0.375,-9.338,-1.831,-2.625
0.883,0.007,0.377,-6.653,-0.732,-2.197
0.896,0.008,0.391,-4.517,-0.549,-2.136
0.907,0.006,0.410,-4.150,-1.770,-2.197
0.907,0.008,0.424,-5.371,-3.235,-1.648
0.901,0.015,0.427,-6.470,-3.479,-1.099
0.899,0.013,0.432,-7.019,-3.540,-1.221
0.903,0.012,0.429,-8.484,-3.845,-1.892
-0.329,0.252,-3.273,180.786,48.889,-54.932
-0.464,0.209,-3.322,208.496,36.804,-71.167
-0.580,0.125,-3.313,233.826,18.860,-89.478
-0.661,-0.001,-3.252,254.639,-5.188,-109.375
-0.712,-0.158,-3.132,272.705,-33.142,-127.502
-0.765,-0.311,-2.961,291.016,-65.002,-141.418
-0.825,-0.449,-2.734,309.326,-99.304,-154.175
-0.861,-0.585,-2.465,327.759,-133.484,-169.373
-0.862,-0.742,-2.146,347.778,-168.457,-186.951
-0.841,-0.892,-1.818,370.300,-204.834,-204.529
-0.798,-1.057,-1.417,393.738,-240.112,-222.351
-0.742,-1.186,-0.989,414.062,-271.973,-238.037
-0.659,-1.323,-0.484,432.312,-306.824,-249.390
-0.565,-1.385,0.122,438.416,-345.825,-252.075
-0.499,-1.344,0.673,421.997,-376.892,-241.638
-0.464,-1.303,1.124,396.301,-389.709,-226.868
-0.334,-1.340,1.534,372.253,-380.005,-213.318
-0.206,-1.312,1.768,344.177,-342.957,-199.280
-0.140,-1.290,1.855,321.655,-290.527,-182.678
-0.026,-1.267,1.904,302.979,-243.286,-167.969
0.081,-1.264,1.850,279.480,-204.041,-155.212
0.171,-1.307,1.713,253.174,-172.180,-142.700
0.252,-1.380,1.598,231.445,-152.588,-128.845
0.312,-1.414,1.492,215.332,-139.221,-110.596
0.289,-1.392,1.404,205.322,-125.671,-90.271
0.257,-1.336,1.376,205.811,-114.014,-73.486
0.202,-1.266,1.443,210.937,-109.314,-61.646
0.183,-1.232,1.576,211.609,-110.291,-54.993
0.214,-1.175,1.761,201.538,-117.676,-50.842
0.271,-1.106,1.911,177.002,-123.108,-45.471
0.300,-1.036,1.985,146.667,-115.417,-37.292
0.333,-0.940,1.958,121.155,-93.750,-28.076
0.657,-1.030,1.919,105.652,-65.063,-20.386
0.315,-0.974,2.107,80.017,-64.575,-35.400
0.305,-0.939,2.132,38.635,-90.942,-50.049
0.583,-0.901,1.945,25.330,-53.467,-15.442
0.558,-0.728,1.642,23.437,-4.517,15.320
0.555,-0.574,1.312,32.104,42.786,34.485
0.526,-0.445,1.006,34.485,72.998,45.898
0.497,-0.313,0.690,29.724,85.938,49.011
0.423,-0.163,0.442,28.381,81.360,42.480
0.407,-0.072,0.368,28.687,60.303,32.532
0.422,-0.026,0.384,26.001,30.823,20.752
0.478,-0.011,0.454,23.987,4.211,8.606
0.547,-0.021,0.539,25.757,-10.437,-0.488
0.617,-0.019,0.617,31.921,-11.719,-4.517
0.676,-0.024,0.695,38.269,-7.080,-4.456
0.732,-0.010,0.729,37.170,-0.549,-0.732
0.753,-0.010,0.724,29.785,5.676,3.723
0.757,-0.017,0.698,22.278,10.437,6.836
0.747,-0.022,0.665,18.677,15.015,9.216
0.742,-0.016,0.646,19.104,17.334,9.094
0.746,-0.023,0.646,18.616,14.832,6.714
0.748,-0.037,0.656,15.686,10.010,4.639
0.764,-0.072,0.659,13.367,4.822,1.770
0.780,-0.094,0.653,10.193,1.831,0.244
0.770,-0.109,0.613,8.850,3.357,0.366
0.754,-0.127,0.576,10.559,6.470,-0.366
0.758,-0.151,0.569,13.184,5.066,-1.526
0.775,-0.180,0.599,13.611,-0.488,-2.258
0.794,-0.216,0.660,11.780,-7.568,-2.747
0.820,-0.242,0.721,10.620,-12.268,-3.906
0.828,-0.265,0.774,10.437,-12.878,-4.700
0.822,-0.278,0.791,7.446,-10.559,-3.906
0.792,-0.263,0.758,3.784,-5.554,-0.305
0.776,-0.223,0.700,2.319,0.793,4.639
0.748,-0.182,0.626,0.427,5.920,9.460
0.703,-0.152,0.557,-1.892,8.484,13.184
0.668,-0.126,0.509,-1.770,8.484,14.893
0.651,-0.104,0.516,0.854,4.639,14.648
0.632,-0.089,0.551,4.822,-0.793,11.963
0.643,-0.086,0.617,10.010,-5.554,6.348
0.655,-0.094,0.671,12.634,-8.240,1.770
0.668,-0.087,0.708,13.000,-8.362,0.122
0.666,-0.080,0.726,11.292,-6.592,0.366
0.670,-0.086,0.710,7.202,-3.296,-0.122
0.665,-0.108,0.663,3.113,0.366,-0.549
0.667,-0.126,0.631,1.953,1.770,-1.038
0.699,-0.141,0.645,3.723,-0.427,-2.502
0.728,-0.155,0.679,4.089,-3.784,-3.357
0.722,-0.166,0.703,2.502,-5.432,-3.052
0.721,-0.173,0.716,2.319,-5.615,-2.014
0.732,-0.174,0.726,2.808,-5.676,-0.732
0.719,-0.154,0.722,1.770,-4.211,1.770
0.692,-0.141,0.706,0.916,-0.366,3.235
0.684,-0.121,0.683,0.732,3.235,3.540
0.675,-0.115,0.659,-0.916,4.272,3.174
0.674,-0.112,0.643,-3.723,2.747,2.625
0.674,-0.114,0.629,-5.676,0.671,1.465
0.664,-0.124,0.634,-5.249,-0.671,-0.183
0.668,-0.130,0.645,-2.441,-0.977,-2.441
0.678,-0.133,0.655,-0.427,-1.648,-4.272
0.695,-0.138,0.667,-0.183,-3.235,-5.371
0.719,-0.143,0.679,-0.427,-4.883,-6.042
0.746,-0.143,0.683,-0.305,-5.066,-5.432
0.755,-0.139,0.688,-0.122,-2.869,-3.723
0.753,-0.137,0.690,0.061,0.061,-2.258
0.751,-0.133,0.684,-0.488,2.075,-0.305
0.731,-0.142,0.680,-2.075,2.136,0.977
0.732,-0.138,0.666,-3.357,0.122,1.099
0.732,-0.143,0.657,-4.700,-2.319,0.854
0.732,-0.136,0.645,-5.127,-4.150,1.221
0.719,-0.136,0.637,-3.662,-4.272,1.160
0.722,-0.138,0.635,-0.916,-4.089,0.549
0.725,-0.135,0.635,1.465,-4.089,0.549
0.731,-0.135,0.630,3.235,-3.845,0.671
0.735,-0.132,0.633,3.967,-3.601,0.854
0.730,-0.128,0.632,4.456,-2.991,2.563
0.725,-0.119,0.644,4.272,-3.113,3.662
0.724,-0.119,0.659,4.456,-2.686,4.272
0.719,-0.128,0.667,4.028,-1.770,5.127
0.705,-0.130,0.663,2.625,-1.709,6.531
0.690,-0.120,0.661,2.197,-2.441,7.507
0.679,-0.121,0.673,1.831,-3.723,7.202
0.683,-0.120,0.683,1.709,-4.517,6.042
0.681,-0.121,0.696,2.014,-4.211,5.310
0.687,-0.117,0.705,2.869,-2.991,5.249
0.687,-0.116,0.708,3.296,-1.221,5.371
0.688,-0.111,0.715,2.930,0.549,6.104
0.189,-0.026,-3.720,121.216,61.829,-17.273
-0.049,-0.114,-4.000,162.292,56.274,-23.071
-0.305,-0.228,-4.000,207.336,37.720,-31.006
-0.556,-0.376,-4.000,252.686,4.211,-41.748
-0.794,-0.570,-4.000,296.326,-39.917,-55.908
-0.992,-0.796,-4.000,338.501,-87.158,-74.158
-1.141,-1.074,-3.774,381.042,-130.676,-97.107
-1.216,-1.351,-3.342,424.133,-167.297,-122.986
-1.231,-1.649,-2.858,466.125,-199.768,-149.170
-1.128,-1.939,-2.291,500.366,-230.957,-171.692
-1.001,-2.128,-1.683,519.043,-270.447,-182.556
-0.927,-2.129,-1.011,519.958,-324.829,-179.199
-0.799,-2.157,-0.140,510.620,-388.550,-169.189
-0.614,-2.221,0.856,487.183,-450.928,-155.640
-0.495,-2.131,1.746,452.820,-481.628,-130.554
-0.348,-1.960,2.436,419.739,-459.717,-104.248
-0.189,-1.823,2.754,382.874,-392.883,-87.769
-0.075,-1.726,2.849,348.511,-310.730,-74.280
0.003,-1.637,2.854,321.167,-244.507,-58.289
0.031,-1.549,2.886,293.030,-209.229,-44.250
0.037,-1.447,2.935,258.484,-195.251,-31.616
0.060,-1.363,2.938,223.938,-185.242,-22.644
0.099,-1.320,2.830,190.613,-161.316,-14.404
0.125,-1.266,2.548,162.781,-120.728,-5.005
0.151,-1.162,2.184,143.433,-78.552,4.089
0.185,-1.060,1.859,132.019,-48.462,11.658
0.214,-0.932,1.597,125.061,-32.410,17.212
0.245,-0.791,1.434,122.314,-27.222,21.423
0.276,-0.634,1.367,123.352,-27.588,23.193
0.298,-0.469,1.386,122.925,-30.640,21.545
0.336,-0.333,1.422,117.188,-36.133,17.883
0.365,-0.210,1.451,102.661,-39.673,14.404
0.432,-0.132,1.448,83.130,-38.696,11.414
0.481,-0.091,1.366,60.730,-32.227,11.597
0.475,-0.037,1.218,42.297,-21.423,14.893
0.481,0.001,1.072,34.973,-9.460,16.296
0.442,-0.039,1.029,34.302,0.671,14.893
0.729,-0.344,1.467,32.593,20.508,20.569
0.910,-0.034,1.336,39.856,57.556,42.297
0.530,0.106,1.165,37.537,65.491,28.137
0.430,0.116,0.911,22.461,47.180,2.869
0.524,0.082,0.866,4.333,1.099,-7.935
0.580,0.071,0.887,-9.521,-32.593,-9.766
0.607,0.100,0.828,-11.841,-30.579,-8.972
0.643,0.108,0.695,-2.563,-6.592,-8.423
0.675,0.098,0.581,8.301,15.198,-5.371
0.711,0.081,0.566,14.160,23.315,0.671
0.776,0.079,0.645,16.663,21.667,7.019
0.824,0.085,0.769,18.311,17.944,10.132
0.810,0.095,0.847,15.930,15.808,11.108
0.776,0.095,0.839,10.193,13.794,11.230
0.755,0.079,0.765,4.150,11.658,11.597
0.739,0.054,0.683,1.526,12.756,13.916
0.723,0.049,0.628,5.554,19.897,17.395
0.727,0.035,0.580,14.038,30.640,19.409
0.738,0.017,0.523,20.325,39.612,20.691
0.726,0.027,0.500,23.560,41.382,21.667
0.735,0.036,0.548,26.184,34.424,20.630
0.746,0.051,0.656,26.733,23.437,16.968
0.734,0.078,0.751,23.743,11.292,13.000
0.710,0.109,0.805,16.968,0.000,8.667
0.689,0.128,0.814,7.996,-7.080,5.249
0.651,0.153,0.785,-1.648,-9.277,3.845
0.636,0.151,0.735,-8.545,-8.118,2.808
0.648,0.131,0.674,-11.475,-4.272,2.625
0.641,0.125,0.630,-10.315,2.686,4.456
0.652,0.106,0.630,-5.127,10.498,5.188
0.693,0.075,0.659,1.221,14.099,4.883
0.718,0.060,0.678,5.676,13.794,5.371
0.709,0.068,0.658,7.935,12.329,5.188
0.713,0.070,0.627,8.545,9.827,3.601
0.704,0.074,0.603,6.836,6.042,2.136
0.689,0.078,0.593,3.540,2.869,1.526
0.688,0.074,0.602,1.587,1.465,1.343
0.695,0.068,0.632,1.587,0.916,1.892
0.708,0.063,0.659,1.892,2.075,2.991
0.709,0.060,0.682,3.052,5.066,4.272
0.713,0.057,0.704,6.165,7.385,5.493
0.730,0.051,0.730,10.559,6.775,5.737
0.723,0.072,0.743,12.817,5.066,5.981
0.708,0.091,0.741,12.634,4.272,5.615
0.701,0.090,0.705,10.498,4.211,4.700
0.697,0.089,0.659,7.019,4.456,4.578
0.687,0.085,0.629,4.395,5.310,4.639
0.683,0.078,0.613,3.296,6.470,4.211
0.682,0.075,0.608,3.845,6.958,3.357
0.671,0.080,0.629,5.066,6.226,2.258
0.674,0.083,0.674,5.188,3.662,0.610
0.690,0.081,0.700,3.540,1.160,-0.671
0.711,0.071,0.692,2.258,0.549,-1.221
0.731,0.061,0.668,2.441,1.526,-1.404
0.739,0.059,0.651,2.197,1.770,-0.366
0.736,0.063,0.627,1.709,3.174,0.916
0.738,0.057,0.613,2.441,5.432,1.648
0.741,0.058,0.633,4.395,5.981,2.441
0.733,0.066,0.642,5.615,6.531,3.601
0.713,0.072,0.653,5.981,6.775,4.456
0.715,0.066,0.685,5.859,4.883,4.333
0.721,0.067,0.707,5.127,1.587,4.517
0.717,0.071,0.704,3.967,-0.183,4.395
0.717,0.067,0.693,3.296,-0.549,3.662
0.721,0.065,0.673,2.686,-0.122,2.869
0.712,0.065,0.636,1.587,1.221,2.869
0.702,0.071,0.624,0.732,2.075,2.991
0.704,0.071,0.635,0.793,2.197,2.625
0.704,0.070,0.627,1.282,3.357,2.441
0.700,0.071,0.609,2.747,5.554,2.747
0.697,0.077,0.615,4.944,6.470,2.136
0.704,0.074,0.651,6.653,5.432,0.732
0.717,0.068,0.681,7.019,3.235,-0.305
0.719,0.073,0.684,5.798,0.793,-0.916
0.729,0.073,0.691,4.272,-1.709,-1.648
0.740,0.077,0.710,2.686,-4.761,-2.197
0.741,0.085,0.715,0.732,-6.775,-2.380
0.727,0.091,0.689,-0.610,-5.493,-2.136
0.714,0.092,0.655,-1.038,-2.258,-1.709
0.708,0.088,0.623,-0.183,1.160,-1.038
0.710,0.082,0.612,1.099,3.723,-0.488
0.718,0.077,0.627,2.502,5.310,0.183
0.237,0.282,-3.275,122.070,35.217,-19.775
0.079,0.249,-3.613,151.489,41.077,-24.109
-0.093,0.218,-3.899,188.599,43.396,-31.494
-0.253,0.096,-4.000,233.887,37.659,-46.875
-0.391,-0.124,-4.000,281.799,20.325,-68.909
-0.520,-0.350,-3.961,329.651,-9.399,-91.125
-0.633,-0.574,-3.669,371.277,-47.241,-110.596
-0.657,-0.878,-3.272,404.175,-88.318,-131.042
-0.598,-1.191,-2.822,426.514,-126.221,-148.132
-0.549,-1.388,-2.387,442.383,-156.311,-156.128
-0.477,-1.529,-1.935,457.764,-182.373,-163.574
-0.412,-1.670,-1.420,473.694,-213.196,-173.035
-0.354,-1.769,-0.833,488.647,-250.671,-180.420
-0.280,-1.884,-0.156,501.587,-288.147,-184.875
-0.201,-1.918,0.486,506.653,-310.974,-183.655
-0.097,-1.906,1.002,498.718,-310.425,-176.514
0.034,-1.846,1.361,476.135,-286.682,-165.222
0.097,-1.772,1.547,438.416,-250.000,-146.973
0.110,-1.714,1.707,403.320,-220.764,-129.211
0.109,-1.667,1.928,379.333,-212.463,-117.004
0.108,-1.614,2.182,356.018,-216.797,-106.689
0.087,-1.566,2.367,326.111,-215.271,-96.313
0.146,-1.534,2.423,292.114,-197.815,-88.379
0.225,-1.476,2.306,255.371,-163.147,-77.148
0.279,-1.406,2.076,221.069,-123.352,-61.096
0.264,-1.301,1.779,190.674,-89.844,-43.945
0.229,-1.183,1.522,169.739,-68.054,-30.579
0.190,-1.068,1.400,163.330,-61.584,-25.391
0.201,-1.012,1.419,163.452,-69.336,-29.968
0.234,-0.984,1.508,156.921,-85.510,-36.194
0.299,-0.933,1.647,144.043,-98.511,-39.124
0.391,-0.873,1.735,127.869,-97.839,-38.330
0.460,-0.788,1.704,107.849,-82.886,-31.067
0.483,-0.677,1.602,88.318,-60.791,-19.287
0.487,-0.572,1.445,73.669,-37.720,-8.789
0.462,-0.504,1.263,60.852,-19.836,-2.441
0.420,-0.462,1.144,51.758,-12.146,1.709
0.573,-0.656,1.434,49.377,-13.123,0.305
0.734,-0.756,1.707,39.917,-13.977,6.531
0.529,-0.553,1.493,25.024,-3.723,16.357
0.505,-0.453,1.208,19.958,11.658,9.644
0.495,-0.323,1.000,15.137,15.625,6.775
0.474,-0.183,0.855,8.179,7.812,8.911
0.481,-0.139,0.790,4.028,5.737,8.667
0.492,-0.063,0.720,4.395,9.644,8.606
0.485,0.009,0.644,4.272,14.648,9.399
0.478,0.059,0.579,3.418,14.465,8.179
0.476,0.083,0.581,3.601,9.094,5.005
0.492,0.099,0.647,6.042,1.709,1.160
0.523,0.104,0.719,8.057,-2.563,-1.831
0.551,0.086,0.764,7.568,-2.563,-4.150
0.603,0.060,0.783,5.127,0.488,-5.249
0.629,0.025,0.752,1.770,5.981,-5.127
0.645,0.006,0.694,0.183,12.573,-3.540
0.643,-0.009,0.661,1.953,17.517,-2.014
0.668,-0.048,0.668,5.676,19.653,-1.770
0.808,-0.194,0.767,7.751,19.165,-0.488
0.895,-0.294,0.835,7.507,22.034,6.714
0.882,-0.298,0.802,9.521,29.358,14.038
0.861,-0.288,0.741,12.512,36.194,16.418
0.830,-0.255,0.680,10.925,33.630,17.090
0.778,-0.196,0.641,5.005,22.095,17.212
0.734,-0.145,0.623,-0.305,9.644,14.832
0.704,-0.120,0.637,-3.967,1.038,11.108
0.682,-0.105,0.657,-4.944,-2.930,7.812
0.670,-0.086,0.665,-3.540,-3.967,5.188
0.668,-0.067,0.655,-1.831,-3.357,3.784
0.659,-0.040,0.665,-0.061,-2.808,3.784
0.660,-0.024,0.678,1.587,-1.648,3.540
0.659,-0.019,0.692,2.441,-0.549,3.662
0.647,-0.023,0.714,3.540,0.244,3.296
0.662,-0.043,0.751,4.028,0.000,2.136
0.680,-0.073,0.778,2.502,-0.854,1.465
0.690,-0.088,0.793,-0.366,-0.916,2.014
0.703,-0.102,0.783,-2.686,1.404,2.441
0.723,-0.112,0.741,-4.333,5.188,3.479
0.729,-0.114,0.675,-6.165,8.789,5.737
0.707,-0.076,0.616,-6.042,11.963,8.118
0.670,-0.071,0.607,-4.883,12.146,7.996
0.683,-0.093,0.607,-3.662,8.118,5.737
0.702,-0.118,0.631,-2.136,2.869,4.456
0.695,-0.123,0.666,0.610,1.404,4.272
0.681,-0.117,0.692,3.723,3.235,3.540
0.679,-0.107,0.719,4.700,2.930,2.502
0.680,-0.095,0.736,2.563,0.000,2.075
0.690,-0.091,0.747,-0.427,-2.380,1.160
0.699,-0.097,0.750,-2.686,-2.808,0.549
0.705,-0.097,0.737,-3.967,-2.319,0.916
0.695,-0.087,0.714,-4.272,-0.793,2.075
0.689,-0.072,0.694,-3.601,1.343,2.869
0.659,-0.041,0.694,-3.296,3.052,2.808
0.667,-0.045,0.638,-4.883,3.296,1.770
0.675,-0.047,0.615,-5.249,2.747,2.014
0.686,-0.052,0.611,-3.967,3.357,2.625
0.684,-0.053,0.637,-1.526,4.333,2.808
0.680,-0.057,0.687,-0.183,3.906,2.380
0.680,-0.073,0.735,-1.404,1.282,1.221
0.687,-0.087,0.765,-3.784,-1.526,0.244
0.691,-0.091,0.766,-5.249,-1.648,-0.488
0.704,-0.092,0.748,-5.859,0.549,-0.488
0.714,-0.084,0.710,-6.775,3.174,0.549
0.715,-0.069,0.665,-6.836,6.287,2.380
0.705,-0.055,0.630,-5.859,9.033,3.601
0.691,-0.047,0.613,-4.761,9.583,4.150
0.688,-0.059,0.607,-4.211,7.141,3.479
0.690,-0.080,0.616,-3.113,3.601,2.808
0.694,-0.084,0.649,-0.549,0.305,2.136
0.697,-0.077,0.695,1.892,-1.282,1.038
0.700,-0.075,0.731,2.258,-1.526,0.061
0.694,-0.070,0.754,0.671,-1.587,0.183
0.702,-0.065,0.763,-1.465,-1.709,0.366
0.710,-0.059,0.755,-3.601,-0.977,0.977
0.691,-0.052,0.724,-5.493,0.793,1.892
0.674,-0.045,0.693,-6.226,2.258,2.075
0.671,-0.043,0.682,-6.104,2.197,1.709
0.667,-0.048,0.674,-6.348,1.892,1.526
0.668,-0.052,0.654,-5.615,2.502,1.343
0.673,-0.050,0.643,-3.296,3.418,0.732
0.674,-0.046,0.629,-1.221,4.150,0.000
0.536,0.401,-2.907,45.105,56.885,-12.146
0.489,0.399,-3.170,78.430,57.495,-15.442
0.397,0.372,-3.374,113.403,51.514,-20.386
0.273,0.334,-3.479,146.606,35.950,-26.062
0.148,0.281,-3.455,178.650,10.559,-33.264
0.037,0.196,-3.336,208.618,-20.630,-42.725
-0.013,0.043,-3.161,236.023,-52.673,-56.580
-0.049,-0.171,-2.901,261.475,-78.735,-69.763
-0.110,-0.346,-2.638,283.691,-93.384,-76.904
-0.160,-0.496,-2.397,304.504,-97.595,-80.872
-0.180,-0.664,-2.190,325.500,-94.299,-88.440
-0.196,-0.809,-2.009,345.581,-90.149,-97.595
-0.216,-0.923,-1.804,363.220,-93.567,-107.239
-0.231,-1.014,-1.578,374.084,-106.384,-116.821
-0.253,-1.085,-1.331,377.686,-126.038,-123.840
-0.249,-1.110,-1.111,379.395,-148.926,-129.639
-0.240,-1.162,-0.856,383.484,-170.349,-136.780
-0.207,-1.185,-0.570,388.977,-188.293,-141.357
-0.162,-1.206,-0.203,391.846,-210.144,-144.043
-0.131,-1.181,0.213,389.099,-232.788,-143.799
-0.048,-1.149,0.635,382.019,-251.038,-141.785
0.063,-1.177,1.070,374.146,-263.245,-140.320
0.169,-1.169,1.415,364.136,-257.629,-132.996
0.244,-1.126,1.625,346.252,-230.530,-120.544
0.275,-1.075,1.650,318.604,-191.223,-107.483
0.327,-1.052,1.583,291.809,-158.447,-96.313
0.352,-1.060,1.512,266.602,-139.465,-84.900
0.299,-1.015,1.479,248.718,-129.944,-74.341
0.305,-1.019,1.617,245.850,-135.620,-73.853
0.389,-1.084,1.860,238.892,-148.865,-75.867
0.482,-1.065,2.038,218.384,-155.151,-72.144
0.515,-1.089,2.120,191.895,-144.897,-66.895
0.596,-1.035,2.097,169.128,-122.437,-60.364
0.640,-1.011,2.013,146.179,-97.107,-51.636
0.645,-0.971,1.854,121.521,-73.792,-39.612
0.597,-0.906,1.665,100.647,-53.406,-27.100
0.600,-0.846,1.528,88.806,-41.504,-19.226
0.596,-0.786,1.430,80.811,-35.034,-14.038
0.591,-0.713,1.346,74.097,-32.837,-11.841
0.604,-0.645,1.300,68.359,-36.377,-11.475
0.624,-0.577,1.287,62.927,-41.138,-10.620
0.647,-0.525,1.260,56.946,-39.490,-8.484
0.676,-0.475,1.201,50.232,-31.372,-4.944
0.679,-0.419,1.106,44.067,-19.348,0.854
0.668,-0.360,1.009,38.513,-7.751,7.202
0.640,-0.295,0.942,32.776,-1.404,12.817
0.609,-0.239,0.910,27.039,-0.244,16.113
0.576,-0.181,0.895,23.132,-1.099,17.822
0.557,-0.111,0.872,20.142,-0.854,17.578
0.538,-0.061,0.846,16.907,0.610,16.174
0.536,-0.020,0.817,13.916,1.770,14.221
0.547,0.015,0.782,10.559,2.319,12.878
0.553,0.031,0.740,6.226,4.028,11.230
0.557,0.044,0.683,2.930,7.080,10.132
0.559,0.051,0.615,1.099,10.559,8.606
0.550,0.051,0.570,0.916,11.169,7.263
0.558,0.056,0.560,2.625,7.629,4.822
0.589,0.051,0.562,5.249,4.272,1.099
0.612,0.047,0.578,8.240,3.113,-1.404
0.650,0.037,0.605,11.902,2.991,-3.479
0.692,0.027,0.630,14.099,2.747,-5.249
0.718,0.019,0.625,13.000,3.113,-5.310
0.734,0.010,0.604,10.742,3.906,-4.761
0.747,-0.010,0.599,8.667,3.784,-4.456
0.756,-0.030,0.602,6.653,1.465,-3.784
0.767,-0.049,0.622,5.615,-1.038,-3.418
0.786,-0.071,0.655,5.920,-2.502,-2.869
0.785,-0.073,0.674,6.653,-1.526,-1.831
0.783,-0.065,0.667,7.446,0.549,-0.793
0.772,-0.057,0.658,8.545,1.770,-0.305
0.765,-0.058,0.660,10.193,1.831,-0.732
0.767,-0.084,0.713,10.986,1.038,-1.282
0.774,-0.141,0.799,9.216,0.305,-1.587
0.781,-0.189,0.857,5.676,0.488,-0.671
0.775,-0.202,0.842,3.174,3.113,0.854
0.765,-0.170,0.785,2.686,6.775,2.258
0.738,-0.140,0.726,0.610,7.568,2.380
0.722,-0.113,0.672,-3.662,4.395,2.686
0.701,-0.083,0.624,-7.446,2.075,3.235
0.692,-0.063,0.589,-7.629,2.197,2.930
0.682,-0.054,0.575,-5.798,2.197,2.319
0.685,-0.042,0.586,-3.540,0.732,1.343
0.687,-0.040,0.621,-2.075,-1.343,0.671
0.687,-0.028,0.637,-0.122,-2.014,0.061
0.703,-0.024,0.670,2.258,-1.709,-1.282
0.712,-0.030,0.696,2.747,-0.671,-2.136
0.710,-0.031,0.706,2.197,0.305,-1.953
0.719,-0.039,0.717,1.892,0.610,-2.014
0.732,-0.053,0.726,0.854,0.977,-1.770
0.730,-0.052,0.727,-1.404,1.770,-0.366
0.714,-0.054,0.705,-3.906,3.479,1.282
0.701,-0.056,0.676,-5.310,5.249,2.136
0.703,-0.071,0.667,-6.165,5.615,1.709
0.719,-0.082,0.657,-7.324,4.456,0.916
0.727,-0.082,0.638,-7.629,4.150,1.099
0.730,-0.074,0.602,-5.737,4.822,0.732
0.728,-0.062,0.580,-3.052,4.456,0.366
0.721,-0.055,0.587,-0.549,2.563,-0.122
0.719,-0.052,0.621,0.305,-0.244,-0.732
0.709,-0.048,0.656,-0.916,-1.892,-0.549
0.701,-0.050,0.683,-2.563,-1.648,-0.122
0.700,-0.047,0.698,-4.089,-0.854,0.244
0.697,-0.045,0.688,-4.944,0.488,0.549
0.694,-0.047,0.701,-3.723,2.441,0.305
0.705,-0.044,0.718,-2.747,2.747,-0.854
0.719,-0.054,0.723,-3.723,1.404,-1.465
0.728,-0.062,0.708,-5.127,0.122,-1.404
0.729,-0.055,0.673,-6.287,0.854,-0.305
0.722,-0.047,0.633,-6.165,3.479,0.549
0.726,-0.040,0.606,-5.493,5.554,0.732
0.721,-0.027,0.601,-4.944,5.493,0.916
0.733,-0.022,0.616,-5.066,3.113,0.183
0.749,-0.029,0.643,-5.737,0.122,-0.183
0.747,-0.037,0.672,-6.165,-1.099,0.427
0.750,-0.042,0.686,-5.737,-1.160,0.671
0.756,-0.050,0.689,-5.432,-0.793,0.916
0.757,-0.063,0.677,-5.188,0.549,1.648
0.756,-0.065,0.658,-3.723,3.601,2.747
0.744,-0.057,0.632,-2.625,6.958,4.028
0.119,0.235,-3.382,133.179,124.634,-45.349
-0.075,0.229,-3.644,167.969,106.750,-53.040
-0.260,0.206,-3.779,205.017,78.430,-65.674
-0.422,0.139,-3.765,242.249,44.312,-83.374
-0.555,0.038,-3.651,276.672,10.864,-102.966
-0.674,-0.065,-3.480,308.044,-18.738,-122.986
-0.773,-0.226,-3.276,337.585,-45.959,-143.433
-0.815,-0.387,-3.048,365.540,-75.195,-164.612
-0.833,-0.552,-2.770,389.832,-107.239,-184.814
-0.776,-0.757,-2.384,407.898,-145.813,-203.735
-0.630,-0.978,-1.914,413.208,-193.848,-214.661
-0.495,-1.152,-1.407,406.921,-248.596,-212.341
-0.381,-1.263,-0.895,394.653,-295.044,-200.562
-0.278,-1.364,-0.396,382.751,-323.853,-188.049
-0.180,-1.424,0.054,372.925,-330.933,-175.842
-0.068,-1.447,0.451,364.746,-319.214,-162.659
0.037,-1.474,0.798,354.980,-303.650,-149.719
0.140,-1.496,1.132,348.999,-292.603,-138.000
0.226,-1.540,1.547,349.487,-284.729,-127.319
0.313,-1.542,2.003,347.961,-277.893,-116.943
0.352,-1.513,2.444,333.984,-272.522,-104.309
0.413,-1.476,2.790,304.016,-262.390,-90.820
0.420,-1.423,2.964,261.047,-237.671,-75.623
0.397,-1.342,2.941,220.154,-198.242,-58.899
0.363,-1.299,2.803,188.965,-152.832,-43.213
0.334,-1.282,2.559,162.903,-109.802,-31.189
0.360,-1.270,2.255,139.587,-74.829,-22.461
0.387,-1.284,1.914,121.399,-49.622,-14.404
0.373,-1.196,1.565,109.436,-33.203,-4.761
0.332,-1.073,1.314,107.544,-25.513,0.305
0.351,-0.949,1.198,115.173,-29.907,-0.854
0.364,-0.824,1.209,115.906,-43.945,-2.869
0.414,-0.701,1.267,105.225,-59.143,-4.944
0.485,-0.619,1.316,90.881,-62.988,-5.310
0.531,-0.525,1.308,79.773,-51.331,-1.404
0.582,-0.426,1.227,71.167,-31.250,5.371
0.583,-0.316,1.083,60.913,-11.902,14.160
0.547,-0.199,0.973,52.185,-0.732,21.851
0.517,-0.104,0.909,46.936,1.343,24.597
0.471,-0.023,0.878,42.542,-2.197,23.010
0.460,0.019,0.904,40.466,-10.010,17.212
0.489,0.043,0.961,39.063,-18.494,10.010
0.531,0.059,0.995,36.377,-21.484,5.249
0.578,0.066,0.983,32.227,-15.442,2.991
0.600,0.087,0.922,28.015,-2.747,2.930
0.610,0.103,0.831,21.362,8.484,3.418
0.605,0.106,0.753,12.878,13.611,4.395
0.621,0.103,0.717,7.324,12.573,3.418
0.637,0.090,0.698,4.944,12.024,1.709
0.645,0.072,0.676,5.432,11.475,-0.671
0.656,0.059,0.651,7.141,8.789,-2.808
0.669,0.032,0.645,7.874,4.150,-4.639
0.709,0.003,0.670,8.179,-1.038,-5.249
0.737,-0.011,0.677,8.118,-2.258,-3.540
0.742,-0.014,0.642,8.057,2.380,-0.427
0.718,-0.009,0.590,10.193,9.277,2.502
0.701,-0.007,0.564,13.672,11.719,2.747
0.705,-0.009,0.577,15.076,6.714,1.465
0.714,-0.019,0.603,13.428,-0.061,0.549
0.731,-0.021,0.633,13.428,-3.784,-0.061
0.732,-0.029,0.651,15.808,-2.441,-0.549
0.732,-0.029,0.654,18.677,-0.244,-0.427
0.732,-0.024,0.671,19.714,-0.793,-0.305
0.720,-0.011,0.708,18.921,-3.174,-0.122
0.736,-0.022,0.762,18.433,-6.409,-1.221
0.752,-0.036,0.793,16.113,-7.202,-0.916
0.751,-0.040,0.788,13.794,-4.211,1.160
0.747,-0.042,0.765,12.756,2.014,3.784
0.730,-0.037,0.734,11.597,7.629,5.310
0.715,-0.039,0.699,9.155,9.094,5.798
0.707,-0.047,0.684,6.165,6.531,5.249
0.695,-0.065,0.698,4.028,2.502,4.333
0.682,-0.072,0.731,3.784,-0.854,2.991
0.685,-0.079,0.765,4.639,-2.747,1.343
0.695,-0.082,0.777,4.211,-3.601,0.061
0.708,-0.086,0.772,2.625,-2.441,-0.244
0.732,-0.091,0.739,0.549,1.160,0.610
0.738,-0.088,0.667,-2.747,6.042,2.686
0.737,-0.081,0.610,-4.578,8.606,4.395
0.737,-0.079,0.571,-4.150,8.728,5.249
0.734,-0.073,0.572,-1.831,6.531,5.981
0.723,-0.060,0.621,1.282,2.991,5.859
0.717,-0.050,0.682,3.052,0.366,4.761
0.709,-0.054,0.730,2.014,-0.977,3.418
0.699,-0.064,0.734,0.183,-1.282,3.357
0.692,-0.061,0.729,-0.061,-1.953,3.845
0.683,-0.060,0.717,0.366,-2.441,3.723
0.682,-0.060,0.717,0.488,-2.686,3.113
0.696,-0.059,0.732,-0.916,-3.174,2.930
0.712,-0.056,0.732,-2.502,-2.014,3.174
0.714,-0.050,0.707,-3.357,2.014,3.845
0.719,-0.047,0.677,-3.479,4.883,4.211
0.711,-0.040,0.662,-3.662,4.639,4.395
0.698,-0.037,0.669,-3.906,2.014,3.540
0.696,-0.031,0.695,-4.517,-1.892,1.709
0.699,-0.030,0.733,-6.653,-6.348,0.610
0.706,-0.044,0.765,-9.521,-9.033,0.000
0.726,-0.057,0.761,-10.803,-7.385,0.488
0.737,-0.068,0.727,-10.437,-1.038,1.953
0.730,-0.068,0.690,-9.460,5.432,4.028
0.719,-0.061,0.672,-8.728,8.606,5.859
0.708,-0.052,0.661,-9.583,8.545,6.714
0.702,-0.044,0.661,-11.414,6.653,6.897
0.688,-0.049,0.662,-12.695,4.456,6.958
0.686,-0.042,0.649,-12.085,3.540,6.531
0.685,-0.021,0.642,-9.216,3.296,5.249
0.688,-0.018,0.653,-7.324,2.563,3.967
0.704,-0.009,0.666,-6.592,0.366,2.380
0.716,-0.007,0.687,-7.324,-1.770,2.014
0.725,-0.009,0.706,-8.972,-1.953,2.808
0.723,-0.010,0.713,-9.827,0.671,3.723
0.719,-0.006,0.698,-9.705,4.517,5.066
0.708,-0.002,0.675,-9.827,7.874,6.165
0.701,0.006,0.655,-9.827,8.789,6.470
0.705,0.009,0.652,-9.949,7.446,6.165
0.698,0.015,0.658,-10.681,5.676,6.470
0.690,0.021,0.655,-10.742,4.089,5.859
0.689,0.024,0.646,-9.949,2.625,4.517
0.691,0.019,0.639,-9.705,1.526,3.357
0.763,0.393,-2.736,117.371,39.246,-17.639
0.645,0.360,-2.927,146.973,30.273,-19.165
0.516,0.309,-3.016,177.673,13.184,-23.621
0.390,0.246,-3.024,206.421,-6.714,-28.992
0.255,0.168,-2.986,233.582,-23.621,-35.278
0.133,0.065,-2.936,261.780,-33.020,-44.067
0.047,-0.060,-2.857,292.358,-37.964,-56.763
-0.025,-0.212,-2.718,322.449,-45.349,-70.557
-0.111,-0.331,-2.553,347.229,-59.326,-81.848
-0.187,-0.445,-2.333,365.479,-81.909,-92.468
-0.246,-0.573,-2.019,376.282,-111.755,-103.333
-0.271,-0.709,-1.679,375.732,-146.606,-109.924
-0.300,-0.837,-1.352,366.516,-181.458,-111.938
-0.300,-0.936,-1.030,359.558,-210.083,-112.244
-0.240,-1.066,-0.659,357.910,-234.497,-114.807
-0.179,-1.188,-0.246,355.408,-252.380,-113.403
-0.110,-1.254,0.186,351.074,-263.428,-105.957
-0.038,-1.265,0.634,347.229,-267.578,-97.229
0.032,-1.217,1.120,344.299,-261.963,-86.365
0.127,-1.148,1.625,336.365,-253.296,-75.195
0.204,-1.087,2.028,315.735,-242.554,-64.697
0.317,-1.047,2.308,282.898,-223.694,-52.612
0.419,-1.029,2.401,248.291,-191.711,-39.917
0.489,-1.014,2.407,222.473,-147.949,-27.283
0.500,-0.950,2.396,208.374,-109.131,-15.991
0.483,-0.886,2.391,193.970,-85.876,-8.667
0.456,-0.850,2.340,170.776,-74.341,-3.235
0.459,-0.862,2.218,144.592,-63.965,0.854
0.491,-0.899,2.026,122.559,-49.622,4.211
0.518,-0.912,1.812,106.689,-34.790,7.812
0.538,-0.882,1.620,96.069,-24.536,12.024
0.540,-0.837,1.497,87.280,-19.836,16.357
0.525,-0.752,1.426,79.651,-19.104,20.508
0.525,-0.680,1.386,72.021,-19.592,22.034
0.525,-0.637,1.345,63.782,-17.334,22.034
0.534,-0.572,1.329,58.411,-13.733,21.729
0.542,-0.491,1.322,55.481,-10.742,20.325
0.567,-0.427,1.317,51.147,-6.897,18.738
0.586,-0.368,1.307,44.556,-2.014,19.043
0.604,-0.296,1.280,35.339,3.906,22.583
0.599,-0.214,1.195,23.865,12.268,28.198
0.604,-0.132,1.070,14.221,22.034,33.081
0.585,-0.060,0.928,7.324,30.212,36.682
0.559,0.012,0.797,3.174,33.264,38.025
0.543,0.067,0.695,0.854,30.884,36.377
0.523,0.101,0.642,-0.427,25.269,33.264
0.512,0.162,0.618,0.183,17.700,28.870
0.525,0.195,0.624,1.160,12.756,23.743
0.541,0.205,0.625,2.136,12.695,18.311
0.555,0.216,0.595,1.953,16.968,15.015
0.558,0.232,0.560,0.366,19.592,13.550
0.559,0.249,0.526,-0.488,20.081,12.085
0.564,0.253,0.501,0.000,20.752,10.132
0.585,0.276,0.471,1.953,21.179,7.874
0.586,0.287,0.449,4.272,20.081,4.456
0.604,0.285,0.449,6.104,14.893,-0.183
0.639,0.274,0.485,6.592,7.080,-4.150
0.689,0.246,0.541,6.104,-0.732,-7.080
0.723,0.226,0.579,5.981,-3.113,-8.545
0.740,0.209,0.587,6.409,0.000,-9.460
0.758,0.190,0.587,7.629,3.113,-10.315
0.770,0.178,0.603,6.592,0.549,-10.254
0.790,0.149,0.625,2.747,-4.883,-9.949
0.812,0.112,0.636,-1.038,-8.240,-9.399
0.823,0.104,0.642,-2.625,-8.301,-7.507
0.834,0.095,0.637,-1.587,-5.371,-6.409
0.841,0.079,0.615,-0.366,-1.282,-5.859
0.840,0.078,0.605,1.587,1.770,-4.150
0.820,0.093,0.616,3.662,2.075,-2.563
0.809,0.099,0.638,4.150,-0.183,-2.441
0.804,0.102,0.663,3.723,-2.441,-3.174
0.802,0.091,0.676,3.967,-2.136,-4.395
0.806,0.074,0.688,3.662,-0.793,-4.272
0.802,0.083,0.679,2.197,1.465,-1.953
0.795,0.094,0.643,-0.305,4.150,0.427
0.783,0.102,0.593,-2.197,5.798,2.380
0.774,0.105,0.557,-1.953,5.432,3.601
0.774,0.103,0.539,0.183,4.028,4.150
0.769,0.107,0.539,2.869,2.502,5.249
0.759,0.120,0.552,5.554,1.221,6.348
0.741,0.138,0.567,8.057,0.671,6.836
0.732,0.144,0.590,9.521,-0.671,5.981
0.737,0.133,0.621,10.132,-3.723,4.272
0.735,0.122,0.645,9.094,-6.104,2.991
0.728,0.123,0.674,8.850,-6.165,2.319
0.729,0.121,0.687,8.423,-4.944,1.099
0.734,0.106,0.704,4.944,-4.944,0.854
0.740,0.096,0.695,1.282,-4.150,1.831
0.736,0.095,0.673,-0.671,-0.671,3.296
0.733,0.098,0.658,0.000,2.380,3.601
0.726,0.102,0.651,0.000,2.991,3.357
0.715,0.105,0.645,-1.038,1.160,2.747
0.717,0.105,0.637,-0.977,-0.916,1.038
0.723,0.096,0.640,0.732,-1.587,-0.427
0.741,0.091,0.639,1.648,-1.526,-0.793
0.757,0.086,0.619,0.671,0.244,0.122
0.750,0.102,0.588,-0.061,3.052,2.380
0.750,0.109,0.568,-0.122,4.395,3.479
0.750,0.112,0.566,-0.427,3.418,3.784
0.744,0.114,0.591,-0.793,0.671,3.967
0.744,0.119,0.629,-0.610,-2.319,3.418
0.750,0.118,0.668,-0.305,-3.967,3.052
0.762,0.107,0.684,-0.916,-3.174,3.601
0.752,0.114,0.666,-1.343,0.244,5.249
0.739,0.124,0.629,-0.793,3.723,6.104
0.734,0.124,0.605,-0.610,4.333,6.042
0.729,0.125,0.599,-1.343,2.563,5.676
0.725,0.126,0.615,-1.953,-0.427,4.761
0.719,0.131,0.639,-2.625,-3.174,3.723
0.715,0.131,0.649,-3.906,-4.211,2.197
0.717,0.120,0.652,-4.333,-4.211,0.854
0.713,0.124,0.653,-4.028,-3.967,0.671
0.716,0.121,0.654,-3.784,-3.235,0.061
0.730,0.115,0.648,-4.150,-1.953,-0.305
0.736,0.115,0.640,-4.456,-0.488,0.488
0.745,0.118,0.631,-3.845,1.221,1.221
0.753,0.115,0.627,-3.235,2.441,1.404
0.751,0.115,0.607,-3.174,3.540,2.441
0.743,0.116,0.588,-2.014,5.127,2.747
0.266,0.400,-3.026,77.759,-39.490,-14.099
0.234,0.301,-3.091,108.032,-60.425,-18.372
0.219,0.174,-3.075,142.151,-74.280,-24.353
0.189,0.028,-3.047,176.697,-77.026,-29.907
0.143,-0.121,-3.027,211.365,-71.594,-35.034
0.092,-0.303,-2.991,246.460,-64.514,-41.687
0.040,-0.499,-2.922,281.372,-60.974,-50.171
-0.043,-0.681,-2.790,316.040,-61.340,-59.082
-0.118,-0.822,-2.603,347.717,-68.054,-68.848
-0.197,-0.959,-2.376,373.230,-83.923,-80.322
-0.243,-1.113,-2.085,392.151,-108.643,-91.919
-0.232,-1.257,-1.750,403.931,-138.611,-100.586
-0.211,-1.387,-1.370,404.907,-168.457,-102.112
-0.161,-1.446,-0.996,399.414,-197.388,-100.037
-0.119,-1.449,-0.596,393.372,-224.121,-94.421
-0.067,-1.436,-0.103,390.320,-249.634,-87.463
0.017,-1.431,0.464,390.503,-264.343,-80.566
0.081,-1.347,0.936,384.338,-256.470,-70.129
0.145,-1.233,1.275,373.840,-230.408,-59.509
0.208,-1.154,1.471,359.619,-196.167,-52.368
0.253,-1.122,1.562,342.590,-161.316,-45.959
0.273,-1.062,1.634,329.834,-134.521,-39.246
0.254,-0.979,1.750,322.205,-121.948,-33.691
0.304,-0.941,1.977,314.758,-124.634,-30.823
0.310,-0.949,2.173,295.776,-129.883,-25.757
0.365,-0.917,2.254,266.296,-122.620,-17.090
0.380,-0.859,2.175,239.502,-97.290,-10.254
0.430,-0.865,2.019,221.680,-67.200,-7.263
0.479,-0.905,1.809,204.834,-44.312,-4.944
0.484,-0.893,1.620,188.049,-32.410,0.427
0.459,-0.856,1.512,177.185,-29.968,5.432
0.436,-0.798,1.518,171.143,-34.363,7.202
0.437,-0.736,1.611,163.513,-42.419,6.592
0.472,-0.694,1.747,150.940,-50.720,5.493
0.529,-0.673,1.869,134.949,-52.490,5.920
0.582,-0.626,1.925,117.859,-42.542,10.254
0.587,-0.536,1.880,100.464,-23.621,16.846
0.578,-0.461,1.743,84.351,-2.808,21.484
0.572,-0.399,1.576,69.641,11.475,24.414
0.559,-0.341,1.417,55.664,17.883,26.367
0.547,-0.304,1.337,43.884,18.616,27.283
0.733,-0.655,1.887,28.870,26.123,31.128
0.634,-0.109,1.342,14.587,44.312,49.561
0.450,-0.063,1.010,7.690,47.791,34.180
0.536,-0.069,0.776,10.315,38.452,16.602
0.591,-0.032,0.761,10.376,13.977,17.212
0.592,0.028,0.819,9.521,1.221,16.785
0.595,0.054,0.783,6.042,6.531,15.503
0.599,0.086,0.702,2.563,17.822,16.357
0.598,0.125,0.589,-0.122,27.100,18.494
0.585,0.183,0.525,-0.549,29.053,19.897
0.573,0.240,0.537,1.404,22.705,18.311
0.593,0.258,0.600,2.197,11.353,14.099
0.610,0.255,0.659,1.221,2.991,10.315
0.622,0.251,0.693,1.282,1.892,7.202
0.632,0.216,0.696,1.587,5.798,3.845
0.648,0.194,0.664,-0.793,10.315,2.563
0.658,0.179,0.625,-3.174,13.855,2.625
0.667,0.173,0.610,-2.991,16.663,1.831
0.676,0.169,0.603,-2.258,17.395,0.488
0.684,0.161,0.608,-2.502,14.526,-1.282
0.706,0.143,0.614,-2.808,9.888,-3.174
0.726,0.117,0.606,-3.784,5.554,-4.211
0.728,0.110,0.600,-3.845,2.380,-4.211
0.749,0.088,0.614,-2.808,-0.854,-4.578
0.769,0.081,0.643,-1.526,-3.662,-4.089
0.781,0.086,0.686,-0.366,-5.798,-2.686
0.791,0.085,0.725,0.366,-5.737,-1.648
0.800,0.071,0.744,0.793,-2.869,-0.366
0.796,0.078,0.734,1.404,2.502,2.441
0.788,0.089,0.720,1.892,6.531,5.371
0.766,0.100,0.708,0.610,7.507,7.996
0.749,0.104,0.696,-1.953,6.348,9.033
0.733,0.108,0.666,-3.967,5.310,9.277
0.726,0.105,0.632,-4.639,4.517,8.545
0.715,0.093,0.590,-4.150,3.906,7.202
0.707,0.090,0.583,-2.808,2.075,6.775
0.706,0.080,0.586,-1.587,0.183,6.470
0.706,0.083,0.592,-1.343,-0.305,7.385
0.691,0.103,0.614,-0.244,0.244,8.728
0.686,0.113,0.637,0.732,1.343,8.972
0.686,0.119,0.653,0.671,2.014,9.094
0.681,0.124,0.674,-0.366,1.709,9.705
0.684,0.119,0.695,-1.221,1.404,9.155
0.682,0.113,0.716,-1.648,1.343,7.751
0.690,0.107,0.736,-1.526,1.465,6.897
0.690,0.107,0.742,-2.319,2.441,6.165
0.701,0.102,0.722,-3.357,3.967,4.883
0.708,0.102,0.692,-4.028,5.737,4.333
0.714,0.098,0.666,-4.150,7.263,3.723
0.729,0.088,0.648,-3.906,7.202,3.540
0.730,0.095,0.641,-3.967,6.287,4.395
0.719,0.111,0.638,-4.333,4.639,5.066
0.719,0.105,0.657,-4.333,2.441,4.944
0.724,0.121,0.678,-4.883,-0.122,5.554
0.713,0.121,0.679,-6.958,-0.366,5.798
0.711,0.117,0.664,-7.996,1.160,5.920
0.716,0.116,0.641,-8.423,2.686,6.409
0.709,0.127,0.609,-9.033,4.700,7.324
0.707,0.133,0.592,-8.423,5.737,7.629
0.700,0.143,0.581,-7.202,5.615,7.263
0.700,0.148,0.585,-6.165,4.089,5.981
0.703,0.151,0.609,-5.676,1.465,4.883
0.708,0.148,0.635,-4.700,0.000,3.845
0.715,0.141,0.646,-3.906,1.343,3.113
0.724,0.144,0.636,-3.662,3.662,3.235
0.724,0.152,0.619,-4.456,4.944,4.089
0.735,0.158,0.606,-5.798,4.211,4.639
0.744,0.162,0.609,-6.348,3.296,4.761
0.739,0.174,0.625,-6.226,2.319,5.249
0.735,0.172,0.656,-5.371,0.366,4.700
0.724,0.190,0.667,-5.066,-1.892,2.869
0.722,0.170,0.680,-5.737,-2.258,2.258
0.732,0.149,0.689,-5.310,-1.831,1.038
0.740,0.141,0.673,-6.470,-0.732,1.648
0.736,0.142,0.640,-8.484,0.977,3.235
0.732,0.135,0.599,-9.705,2.441,4.395
0.724,0.140,0.570,-10.437,3.052,5.554
0.715,0.152,0.568,-9.949,1.587,6.104
0.633,0.633,-2.519,80.383,67.383,-16.724
0.525,0.610,-2.714,103.333,63.171,-21.667
0.418,0.574,-2.846,126.953,50.110,-28.625
0.324,0.511,-2.911,151.123,30.396,-37.903
0.260,0.403,-2.901,177.124,6.592,-48.157
0.202,0.263,-2.834,202.271,-16.907,-57.800
0.150,0.110,-2.709,227.722,-38.818,-65.308
0.119,-0.034,-2.521,252.380,-59.204,-70.129
0.069,-0.149,-2.304,274.353,-76.416,-71.533
0.019,-0.260,-2.099,293.518,-88.318,-73.303
-0.020,-0.371,-1.916,310.913,-95.703,-77.881
-0.044,-0.500,-1.727,324.524,-101.318,-82.581
-0.070,-0.616,-1.533,332.642,-110.535,-84.045
-0.103,-0.718,-1.342,335.815,-125.671,-83.313
-0.139,-0.806,-1.171,337.891,-142.395,-81.726
-0.170,-0.915,-0.989,344.543,-155.701,-81.787
-0.155,-1.072,-0.765,353.577,-164.917,-83.069
-0.151,-1.175,-0.528,358.948,-171.997,-82.397
-0.127,-1.215,-0.243,361.877,-181.030,-79.224
-0.028,-1.290,0.174,364.929,-199.585,-77.698
0.072,-1.370,0.670,364.990,-215.820,-75.317
0.156,-1.364,1.167,364.929,-217.834,-65.125
0.184,-1.253,1.657,364.746,-204.895,-53.406
0.206,-1.152,2.166,358.704,-187.866,-47.424
0.268,-1.137,2.596,338.501,-175.781,-45.532
0.366,-1.119,2.964,303.345,-165.222,-40.222
0.382,-1.072,3.198,262.390,-148.621,-26.489
0.365,-0.969,3.254,223.206,-121.094,-12.512
0.339,-0.901,3.155,185.791,-85.571,-3.784
0.318,-0.867,2.914,151.367,-48.706,0.183
0.309,-0.866,2.593,121.704,-18.311,2.197
0.322,-0.863,2.225,97.168,4.089,3.296
0.333,-0.844,1.840,78.491,19.348,3.418
0.354,-0.802,1.476,67.383,28.442,1.953
0.366,-0.711,1.191,65.918,31.067,-1.038
0.389,-0.608,1.035,71.960,25.818,-6.042
0.446,-0.503,1.017,76.294,12.634,-10.681
0.499,-0.380,1.099,73.364,-3.662,-11.292
0.557,-0.274,1.210,66.528,-13.306,-9.705
0.594,-0.196,1.252,56.580,-8.301,-6.165
0.589,-0.123,1.195,45.654,6.775,-1.160
0.590,-0.048,1.056,35.889,21.362,4.944
0.555,0.023,0.895,25.452,30.029,10.254
0.528,0.078,0.749,18.677,32.532,12.573
0.513,0.156,0.631,18.188,29.724,10.193
0.507,0.178,0.585,20.203,23.926,6.042
0.519,0.196,0.600,23.926,16.418,0.732
0.550,0.209,0.662,27.100,8.850,-4.395
0.584,0.213,0.744,27.527,2.930,-8.606
0.629,0.219,0.826,24.292,-1.099,-11.047
0.659,0.226,0.879,18.005,-1.343,-11.658
0.695,0.217,0.893,12.268,3.052,-11.047
0.710,0.211,0.855,6.958,10.620,-9.949
0.732,0.202,0.797,3.296,16.907,-8.545
0.760,0.183,0.724,0.793,20.325,-7.507
0.775,0.164,0.636,-0.854,21.240,-5.554
0.784,0.141,0.556,-0.732,20.935,-3.906
0.791,0.126,0.504,1.099,18.250,-2.380
0.801,0.120,0.500,4.333,13.916,-1.587
0.824,0.112,0.515,7.385,10.132,-1.282
0.838,0.101,0.555,8.423,7.324,-0.183
0.826,0.107,0.592,7.935,4.211,1.343
0.828,0.104,0.634,7.202,1.526,1.953
0.826,0.088,0.666,6.287,1.709,2.136
0.813,0.073,0.675,5.676,4.883,2.686
0.788,0.089,0.667,6.165,7.812,3.479
0.775,0.084,0.673,6.653,6.531,3.113
0.771,0.088,0.681,5.676,3.479,3.357
0.766,0.105,0.681,5.432,2.380,3.906
0.762,0.111,0.677,6.104,3.174,3.845
0.756,0.111,0.679,5.493,3.113,4.150
0.742,0.117,0.676,3.418,2.075,5.127
0.732,0.107,0.685,1.709,0.671,5.554
0.734,0.097,0.702,-0.122,-1.221,5.981
0.720,0.101,0.709,-1.892,-1.648,7.019
0.709,0.103,0.705,-2.258,-0.122,6.897
0.708,0.100,0.682,-1.404,2.014,5.310
0.712,0.103,0.665,-0.793,2.686,4.028
0.713,0.117,0.652,-0.854,2.319,2.869
0.723,0.117,0.641,-1.343,2.258,1.221
0.736,0.109,0.626,-1.831,2.441,-0.183
0.742,0.099,0.603,-2.502,2.441,-0.305
0.749,0.096,0.586,-2.258,1.709,0.000
0.759,0.109,0.595,0.244,0.488,1.038
0.767,0.110,0.613,2.747,-0.488,1.648
0.769,0.112,0.617,3.296,-0.366,2.869
0.762,0.129,0.616,3.479,0.122,4.822
0.758,0.133,0.625,3.967,-0.122,5.737
0.748,0.123,0.646,3.357,-1.465,6.409
0.729,0.122,0.676,2.991,-4.150,7.446
0.717,0.120,0.714,2.747,-6.165,7.690
0.704,0.120,0.729,1.526,-6.409,7.202
0.695,0.115,0.734,-0.549,-5.920,6.592
0.697,0.115,0.724,-1.404,-3.540,5.676
0.705,0.110,0.690,-1.648,0.244,4.761
0.704,0.108,0.654,-2.502,2.319,4.700
0.695,0.115,0.628,-3.174,2.319,5.127
0.697,0.108,0.623,-3.235,0.977,4.944
0.697,0.112,0.631,-2.625,-0.488,5.188
0.681,0.120,0.628,-2.075,-0.549,5.371
0.679,0.125,0.630,-1.343,-0.854,4.395
0.674,0.130,0.648,-0.854,-2.747,3.540
0.680,0.129,0.676,-1.343,-5.920,2.197
0.687,0.122,0.692,-2.441,-7.507,1.099
0.693,0.117,0.683,-3.723,-6.287,1.343
0.694,0.117,0.679,-4.272,-4.150,2.136
0.696,0.122,0.676,-4.822,-2.258,3.235
0.688,0.119,0.655,-5.920,-0.854,3.662
0.691,0.113,0.644,-6.470,-0.732,3.662
0.692,0.109,0.644,-6.470,-1.465,3.784
0.690,0.124,0.639,-5.676,-0.854,4.150
0.689,0.131,0.636,-3.723,0.793,3.479
0.693,0.137,0.641,-1.770,1.038,2.441
0.693,0.139,0.649,-1.587,-0.122,1.892
0.692,0.141,0.654,-1.465,-1.587,1.465
0.699,0.136,0.649,-1.099,-1.831,0.305
0.696,0.139,0.645,-0.732,-1.587,-0.061
0.687,0.142,0.649,-1.343,-2.258,-0.061
0.689,0.133,0.655,-2.625,-3.479,-0.549
0.470,-0.780,2.687,277.283,-153.503,-28.748
0.501,-0.711,2.875,253.296,-132.629,-23.926
0.532,-0.651,2.943,223.572,-111.633,-19.470
0.559,-0.608,2.854,188.538,-87.646,-14.709
0.565,-0.586,2.625,156.799,-60.425,-11.353
0.578,-0.619,2.330,131.775,-35.339,-10.376
0.594,-0.657,2.002,110.840,-16.235,-9.399
0.621,-0.705,1.676,95.520,-3.357,-7.446
0.656,-0.731,1.366,86.426,7.385,-5.066
0.656,-0.691,1.085,82.031,13.367,-1.038
0.645,-0.637,0.893,81.421,9.521,3.052
0.640,-0.571,0.801,82.825,0.549,5.737
0.648,-0.470,0.811,84.961,-7.446,8.911
0.655,-0.351,0.885,85.938,-13.672,13.000
0.682,-0.255,0.975,82.214,-16.724,15.747
0.682,-0.145,1.038,74.707,-16.113,19.287
0.664,-0.066,1.093,65.918,-13.123,21.362
0.665,-0.034,1.135,56.396,-9.949,21.423
0.661,-0.009,1.125,44.922,-5.432,22.400
0.639,0.020,1.077,33.386,0.732,24.475
0.628,0.076,1.004,25.757,8.606,25.513
0.592,0.110,0.915,19.287,16.479,24.963
0.559,0.150,0.801,14.526,20.447,22.766
0.515,0.205,0.733,13.428,16.663,19.226
0.517,0.226,0.727,12.268,6.287,14.038
0.530,0.217,0.757,9.949,-3.723,8.423
0.548,0.203,0.771,7.324,-5.249,3.479
0.561,0.201,0.742,4.395,1.404,0.549
0.576,0.190,0.689,1.770,7.996,-1.465
0.614,0.191,0.612,-0.732,11.475,-1.587
0.626,0.177,0.572,-1.221,13.550,-2.075
0.646,0.164,0.526,1.343,15.198,-3.357
0.660,0.159,0.488,4.639,12.939,-5.615
0.685,0.145,0.475,7.874,6.470,-8.789
0.716,0.135,0.502,11.047,-0.671,-11.108
0.751,0.116,0.568,13.733,-6.531,-12.207
0.779,0.118,0.646,12.451,-10.498,-10.803
0.811,0.118,0.697,9.094,-10.254,-8.240
0.826,0.121,0.697,5.554,-2.563,-5.371
0.818,0.117,0.667,4.089,7.446,-2.441
0.817,0.129,0.626,3.113,13.245,-0.244
0.790,0.131,0.603,1.892,13.855,1.709
0.771,0.130,0.587,1.465,10.681,1.831
0.766,0.122,0.588,1.770,5.371,0.610
0.763,0.108,0.614,2.869,0.122,-0.488
0.760,0.099,0.631,4.089,-1.953,-0.854
0.763,0.090,0.636,5.493,-0.488,-0.854
0.767,0.087,0.637,5.310,2.014,-0.488
0.764,0.096,0.630,3.296,3.418,0.854
0.759,0.109,0.626,2.197,5.066,1.404
0.753,0.108,0.620,1.709,6.287,1.343
0.746,0.122,0.620,1.648,5.432,1.770
0.749,0.130,0.643,2.441,2.441,0.916
0.751,0.125,0.656,1.526,-0.488,-0.183
0.756,0.108,0.650,0.793,-2.014,-0.732
0.766,0.082,0.632,0.488,-1.465,-1.160
0.759,0.066,0.594,-0.427,0.854,-0.305
0.742,0.070,0.557,-0.061,2.502,1.221
0.736,0.072,0.546,2.258,2.075,1.526
0.733,0.073,0.566,3.967,0.000,1.953
0.727,0.088,0.606,5.737,-1.892,2.319
0.729,0.090,0.647,6.775,-1.953,1.709
0.731,0.094,0.668,5.554,-0.732,1.404
0.732,0.095,0.660,3.296,1.587,1.526
0.736,0.093,0.650,1.892,3.479,1.709
0.744,0.097,0.645,1.404,4.639,1.892
0.749,0.095,0.635,0.305,5.371,2.686
0.743,0.101,0.609,-0.549,6.653,3.662
0.738,0.100,0.598,-0.061,6.653,3.662
0.739,0.091,0.604,-0.122,4.150,3.418
0.736,0.089,0.614,-1.038,1.526,3.357
0.730,0.085,0.620,-0.427,1.160,2.747
0.726,0.092,0.625,0.854,2.014,2.258
0.722,0.104,0.636,1.038,1.831,1.953
0.722,0.111,0.643,-0.061,1.160,1.709
0.729,0.112,0.641,-1.465,1.709,1.282
0.736,0.112,0.622,-2.502,3.235,0.854
0.742,0.116,0.602,-2.991,4.272,0.488
0.748,0.117,0.596,-2.930,4.272,0.061
0.748,0.117,0.600,-2.747,2.625,-0.366
0.759,0.107,0.630,-2.136,-0.427,-1.160
0.771,0.111,0.671,-1.099,-2.686,-1.160
0.777,0.108,0.689,-1.221,-1.831,-1.343
0.786,0.092,0.680,-2.380,0.732,-0.916
0.783,0.096,0.643,-3.967,3.418,0.793
0.775,0.098,0.596,-5.005,5.554,2.441
0.770,0.089,0.560,-5.676,6.287,3.418
0.762,0.102,0.552,-5.920,5.371,5.005
0.746,0.109,0.555,-5.798,3.357,5.493
0.739,0.105,0.550,-5.554,1.587,5.432
0.724,0.113,0.540,-3.479,2.014,4.883
0.712,0.130,0.558,0.244,2.014,3.479
0.720,0.133,0.596,1.587,-0.122,1.892
0.719,0.142,0.629,0.610,-2.197,1.099
0.728,0.132,0.640,0.061,-1.709,0.000
0.745,0.120,0.637,-0.366,0.549,-0.061
0.740,0.124,0.620,-1.953,2.563,0.916
0.737,0.117,0.609,-2.747,3.418,0.977
0.739,0.113,0.612,-3.174,2.258,0.916
0.736,0.108,0.619,-4.150,0.793,0.610
0.742,0.102,0.625,-4.272,0.366,-0.244
0.743,0.104,0.622,-3.113,1.282,-0.366
0.744,0.105,0.611,-2.197,2.441,-0.122
0.747,0.109,0.600,-2.258,2.686,0.305
0.756,0.114,0.593,-2.625,2.563,0.732
0.754,0.116,0.582,-3.052,3.174,1.343
0.753,0.122,0.575,-2.869,3.967,1.648
0.748,0.128,0.593,-2.075,3.235,1.831
0.748,0.131,0.618,-2.747,0.854,1.526
0.757,0.124,0.640,-3.601,-0.061,1.160
0.761,0.128,0.636,-3.723,1.892,1.221
0.768,0.125,0.616,-2.991,4.700,0.854
0.772,0.125,0.584,-2.991,6.287,1.099
0.773,0.124,0.563,-2.991,5.859,1.892
0.766,0.129,0.552,-2.930,4.211,2.563
0.765,0.131,0.559,-2.686,2.380,2.380
0.760,0.133,0.570,-2.563,0.854,1.831
0.763,0.130,0.583,-2.014,-0.427,1.282
0.773,0.125,0.599,-1.648,-0.488,0.549
0.189,0.414,-2.992,127.319,40.955,-20.020
0.067,0.378,-3.106,156.921,28.809,-30.273
-0.023,0.286,-3.141,186.523,9.888,-44.067
-0.105,0.157,-3.107,216.370,-11.353,-59.631
-0.157,0.006,-3.000,246.826,-32.654,-75.439
-0.170,-0.176,-2.813,275.085,-53.650,-89.905
-0.168,-0.335,-2.579,296.997,-76.965,-99.426
-0.178,-0.434,-2.332,312.500,-102.905,-103.455
-0.202,-0.544,-2.059,325.256,-127.380,-106.567
-0.208,-0.649,-1.789,339.600,-146.606,-113.098
-0.196,-0.768,-1.528,354.431,-158.630,-120.178
-0.179,-0.874,-1.281,366.516,-167.847,-125.244
-0.158,-0.975,-1.048,372.314,-180.542,-127.136
-0.120,-1.075,-0.812,372.131,-194.702,-125.854
-0.094,-1.142,-0.588,365.967,-208.496,-120.300
-0.057,-1.217,-0.359,354.919,-222.168,-113.037
-0.008,-1.243,-0.122,344.788,-231.812,-102.966
0.063,-1.263,0.173,340.271,-239.197,-91.919
0.110,-1.239,0.521,340.271,-244.385,-82.947
0.171,-1.221,0.940,340.576,-244.629,-74.829
0.239,-1.181,1.377,338.562,-241.882,-66.467
0.305,-1.116,1.769,328.308,-233.337,-54.993
0.356,-1.045,2.076,306.091,-215.881,-40.894
0.372,-0.952,2.216,279.419,-185.059,-28.320
0.387,-0.875,2.249,257.996,-143.860,-19.958
0.402,-0.801,2.229,242.981,-106.506,-16.541
0.418,-0.760,2.205,226.257,-85.754,-15.625
0.437,-0.745,2.188,205.811,-81.543,-13.062
0.433,-0.735,2.183,184.631,-80.750,-8.850
0.466,-0.744,2.158,164.795,-71.655,-5.005
0.479,-0.742,2.027,144.653,-52.795,-0.854
0.488,-0.719,1.842,127.075,-30.029,3.967
0.485,-0.663,1.639,114.075,-10.803,7.996
0.466,-0.600,1.440,103.210,0.305,9.094
0.476,-0.553,1.306,95.215,3.174,8.057
0.513,-0.516,1.242,89.355,0.061,6.592
0.549,-0.497,1.210,80.627,-4.883,6.775
0.576,-0.442,1.195,70.923,-6.042,10.498
0.579,-0.377,1.167,65.369,-2.014,14.404
0.581,-0.291,1.115,61.462,5.310,15.991
0.593,-0.219,1.069,55.969,10.437,16.113
0.598,-0.149,1.018,47.363,11.475,15.808
0.618,-0.093,1.007,39.246,7.874,16.113
0.637,-0.035,0.998,29.053,3.357,16.785
0.659,-0.010,0.976,18.311,2.441,16.479
0.672,0.005,0.939,12.024,6.958,16.785
0.672,0.038,0.892,8.667,13.550,18.616
0.654,0.092,0.837,5.615,18.066,20.264
0.644,0.119,0.789,3.235,18.738,19.409
0.639,0.137,0.748,1.343,16.846,16.907
0.621,0.160,0.719,-0.793,12.085,14.282
0.616,0.169,0.714,-2.319,5.127,9.949
0.621,0.161,0.739,-2.991,-1.770,5.188
0.641,0.151,0.786,-4.333,-7.568,1.282
0.672,0.139,0.827,-7.141,-10.010,-0.793
0.696,0.120,0.816,-10.254,-5.371,-1.221
0.704,0.121,0.763,-11.536,3.235,-0.366
0.721,0.114,0.708,-12.085,10.254,0.244
0.724,0.123,0.657,-15.320,11.719,1.465
0.725,0.135,0.626,-18.738,7.935,1.648
0.744,0.125,0.606,-19.470,3.357,-0.122
0.750,0.128,0.589,-17.883,1.038,-1.160
0.742,0.144,0.579,-13.977,-0.244,-1.770
0.737,0.150,0.578,-9.705,-2.014,-3.235
0.752,0.130,0.590,-7.629,-5.432,-4.517
0.767,0.128,0.616,-8.484,-9.949,-3.418
0.766,0.128,0.636,-11.536,-13.245,-0.793
0.769,0.129,0.631,-12.024,-10.864,1.221
0.765,0.125,0.613,-10.071,-4.761,2.930
0.753,0.124,0.595,-8.911,0.122,5.188
0.740,0.129,0.577,-9.155,1.160,7.446
0.725,0.132,0.565,-9.155,0.732,8.057
0.712,0.120,0.563,-7.202,0.854,6.775
0.709,0.110,0.571,-3.845,0.549,4.944
0.698,0.118,0.598,-0.916,-0.610,3.479
0.702,0.124,0.626,0.488,-2.563,1.648
0.713,0.116,0.649,0.366,-4.211,0.061
0.723,0.114,0.662,-0.610,-4.150,0.183
0.727,0.114,0.664,-2.380,-3.296,1.526
0.724,0.130,0.661,-4.395,-3.174,3.418
0.714,0.147,0.664,-5.615,-3.845,4.639
0.715,0.147,0.672,-6.653,-4.883,4.395
0.719,0.146,0.667,-7.446,-4.456,4.211
0.724,0.148,0.656,-6.470,-1.953,4.211
0.728,0.155,0.640,-4.822,0.732,4.456
0.722,0.177,0.625,-2.869,2.319,5.249
0.723,0.189,0.623,-1.404,2.136,5.066
0.731,0.187,0.631,-1.221,0.610,4.517
0.730,0.198,0.641,-2.014,-1.160,4.761
0.724,0.212,0.659,-2.258,-2.991,4.700
0.719,0.213,0.678,-3.540,-5.676,4.211
0.709,0.215,0.700,-6.104,-8.850,4.089
0.705,0.211,0.720,-7.385,-9.521,3.784
0.709,0.203,0.713,-7.812,-5.920,3.418
0.707,0.201,0.676,-7.935,0.244,3.906
0.709,0.196,0.628,-8.240,5.066,4.761
0.704,0.212,0.573,-7.629,8.423,5.798
0.689,0.229,0.534,-5.737,10.010,5.798
0.681,0.235,0.509,-3.357,8.911,4.395
0.677,0.240,0.503,-1.160,5.127,2.625
0.672,0.238,0.527,0.732,-0.427,0.977
0.672,0.237,0.574,2.808,-4.517,-0.732
0.677,0.232,0.622,4.150,-6.531,-2.136
0.676,0.226,0.659,2.991,-7.385,-2.197
0.678,0.220,0.681,0.488,-7.324,-1.648
0.681,0.214,0.685,-1.648,-4.761,-0.977
0.677,0.205,0.680,-2.930,-1.465,-0.427
0.674,0.205,0.678,-4.089,-0.488,0.427
0.676,0.203,0.681,-5.554,-1.038,0.793
0.677,0.203,0.672,-7.202,-1.282,0.916
0.672,0.210,0.652,-7.996,-1.099,1.038
0.668,0.219,0.640,-7.446,-1.282,0.305
0.670,0.224,0.629,-7.019,-1.587,-1.343
0.677,0.224,0.623,-6.592,-2.197,-2.686
0.682,0.215,0.625,-6.653,-3.235,-3.540
0.689,0.203,0.631,-7.080,-4.272,-3.662
0.693,0.202,0.638,-7.568,-4.639,-2.686
0.687,0.214,0.639,-7.385,-2.991,-1.587
0.684,0.218,0.634,-6.714,-0.793,-1.404
0.370,0.533,-2.735,106.140,11.169,-15.869
0.333,0.450,-2.873,129.028,5.981,-18.799
0.231,0.366,-3.002,151.794,2.319,-20.264
0.095,0.257,-3.136,179.871,1.282,-23.437
-0.041,0.128,-3.228,214.233,-1.770,-32.043
-0.180,-0.029,-3.209,252.563,-12.329,-44.922
-0.281,-0.209,-3.065,289.673,-32.532,-59.998
-0.337,-0.388,-2.827,320.496,-59.021,-74.890
-0.359,-0.543,-2.533,343.201,-88.928,-87.402
-0.372,-0.705,-2.188,358.765,-120.483,-95.825
-0.358,-0.833,-1.812,370.300,-153.259,-102.478
-0.339,-0.953,-1.390,378.113,-182.678,-106.140
-0.297,-1.055,-0.970,380.432,-205.811,-106.201
-0.261,-1.107,-0.584,378.845,-222.107,-103.882
-0.217,-1.133,-0.202,378.235,-231.201,-101.746
-0.125,-1.193,0.220,380.798,-238.525,-103.027
-0.032,-1.230,0.692,381.592,-242.859,-101.379
0.061,-1.192,1.160,377.563,-238.464,-93.506
0.123,-1.098,1.621,368.164,-226.257,-83.252
0.192,-0.988,2.003,352.539,-207.642,-72.083
0.252,-0.911,2.212,325.256,-181.335,-62.317
0.324,-0.877,2.243,292.786,-147.278,-53.467
0.377,-0.865,2.160,268.127,-109.741,-45.898
0.439,-0.892,2.066,253.723,-77.698,-40.894
0.484,-0.924,1.975,238.220,-57.922,-33.386
0.506,-0.950,1.887,220.215,-49.622,-23.193
0.502,-0.926,1.788,203.613,-44.006,-13.062
0.494,-0.880,1.702,190.247,-35.522,-4.761
0.499,-0.830,1.614,178.894,-26.489,-1.404
0.530,-0.807,1.538,166.077,-21.240,-0.671
0.549,-0.783,1.476,152.466,-18.982,1.282
0.542,-0.721,1.416,141.907,-16.174,4.333
0.552,-0.652,1.393,135.925,-12.329,6.958
0.561,-0.576,1.367,131.653,-7.507,9.094
0.566,-0.521,1.336,124.878,-4.944,11.108
0.579,-0.464,1.287,116.638,-2.991,13.794
0.591,-0.383,1.269,106.812,-0.793,16.357
0.605,-0.297,1.271,96.008,-0.793,18.127
0.630,-0.243,1.244,80.811,-0.916,18.799
0.635,-0.194,1.189,65.308,0.671,20.935
0.626,-0.127,1.116,55.176,5.371,22.522
0.609,-0.076,1.047,50.232,10.498,21.423
0.597,-0.043,0.987,45.532,13.123,19.165
0.594,-0.018,0.941,40.833,11.780,16.235
0.597,0.012,0.917,36.072,7.812,13.733
0.608,0.021,0.907,30.457,4.395,11.902
0.621,0.026,0.895,25.024,3.662,10.986
0.632,0.048,0.875,21.973,5.310,10.742
0.644,0.073,0.857,20.386,7.812,10.498
0.641,0.096,0.833,18.005,10.010,10.010
0.647,0.102,0.807,15.686,10.254,9.094
0.658,0.102,0.798,15.198,9.033,8.545
0.670,0.099,0.843,14.648,7.507,7.690
0.680,0.083,0.865,11.047,7.507,6.897
0.687,0.079,0.829,7.629,8.850,6.470
0.698,0.083,0.778,6.104,9.521,5.798
0.704,0.094,0.717,4.333,9.277,5.005
0.703,0.103,0.672,3.357,8.606,4.761
0.692,0.104,0.644,2.930,8.057,4.822
0.677,0.110,0.644,2.136,6.287,5.432
0.660,0.111,0.660,0.366,3.479,5.554
0.654,0.100,0.691,-1.648,0.488,4.944
0.661,0.092,0.737,-2.686,-2.197,4.456
0.663,0.096,0.778,-2.869,-3.052,4.272
0.684,0.094,0.791,-2.380,-1.404,3.113
0.696,0.086,0.747,-2.075,3.296,1.526
0.700,0.095,0.669,-1.648,8.179,1.282
0.695,0.108,0.607,-1.099,9.399,1.221
0.704,0.113,0.575,-1.404,7.080,0.793
0.708,0.108,0.568,-2.930,3.418,0.427
0.730,0.089,0.606,-3.357,0.122,0.244
0.740,0.077,0.660,-3.174,-1.465,1.221
0.727,0.081,0.693,-2.686,-0.732,3.052
0.707,0.090,0.713,-1.526,0.427,3.784
0.701,0.095,0.724,-0.061,0.122,3.113
0.698,0.085,0.723,0.427,-2.014,2.258
0.677,0.100,0.692,-0.061,-5.127,1.648
0.663,0.095,0.674,-0.305,-7.507,0.793
0.657,0.095,0.662,-0.366,-7.935,0.061
0.653,0.100,0.661,-0.427,-7.446,-0.610
0.651,0.108,0.660,-0.061,-5.310,-0.977
0.649,0.113,0.650,0.366,-1.282,-1.221
0.650,0.127,0.632,0.671,2.869,-1.099
0.644,0.133,0.610,0.549,5.310,-1.160
0.648,0.138,0.610,0.732,4.700,-1.770
0.650,0.138,0.642,1.343,1.160,-2.319
0.653,0.133,0.683,0.977,-2.441,-3.174
0.664,0.119,0.712,0.488,-3.784,-3.723
0.668,0.114,0.718,0.671,-2.319,-4.578
0.665,0.113,0.713,1.343,-0.793,-5.676
0.685,0.089,0.716,2.686,-0.854,-7.507
0.712,0.074,0.728,1.831,-2.136,-7.935
0.726,0.070,0.741,-1.099,-3.357,-6.165
0.734,0.066,0.737,-3.296,-2.563,-4.272
0.731,0.066,0.724,-4.333,-0.732,-2.808
0.727,0.064,0.717,-4.456,-0.244,-2.014
0.728,0.067,0.717,-4.639,-1.587,-1.404
0.720,0.071,0.721,-4.822,-3.174,-1.038
0.713,0.073,0.727,-4.517,-3.784,-0.916
0.714,0.074,0.722,-4.395,-3.296,-0.977
0.723,0.075,0.729,-4.395,-2.319,-0.549
0.718,0.086,0.716,-4.822,0.244,1.221
0.705,0.096,0.689,-5.798,2.930,2.625
0.697,0.098,0.663,-6.287,2.869,3.113
0.697,0.098,0.662,-6.531,0.427,3.479
0.688,0.096,0.668,-6.897,-2.075,3.357
0.686,0.097,0.686,-6.409,-4.333,2.991
0.694,0.095,0.720,-5.737,-5.859,2.502
0.699,0.098,0.733,-6.165,-4.089,3.235
0.689,0.109,0.717,-6.409,0.183,4.761
0.682,0.113,0.683,-6.165,4.456,6.104
0.675,0.117,0.652,-6.165,6.165,6.775
0.663,0.127,0.632,-5.615,5.676,7.141
0.652,0.139,0.630,-4.639,4.395,7.019
0.645,0.148,0.644,-3.967,2.319,6.104
0.636,0.151,0.652,-4.578,0.183,4.456
0.639,0.147,0.658,-4.333,-0.732,2.808
0.648,0.140,0.660,-3.113,0.244,1.770
0.643,0.148,0.658,-2.319,2.258,1.648
0.408,0.671,-2.877,73.547,-22.888,-9.583
0.325,0.634,-3.195,99.976,-30.518,-14.282
0.234,0.555,-3.408,130.432,-48.645,-19.836
0.161,0.444,-3.503,165.039,-75.256,-27.649
0.101,0.272,-3.453,201.233,-103.882,-36.377
0.077,0.062,-3.303,235.779,-126.282,-44.067
0.079,-0.182,-3.113,265.076,-139.771,-48.828
0.065,-0.431,-2.890,291.321,-147.522,-51.331
0.062,-0.627,-2.642,318.848,-149.841,-53.101
0.037,-0.815,-2.340,346.436,-147.400,-55.054
0.012,-0.944,-2.053,371.582,-142.700,-58.289
-0.020,-1.035,-1.779,393.188,-140.381,-62.744
-0.091,-1.116,-1.495,408.569,-145.386,-68.848
-0.137,-1.167,-1.204,418.335,-157.959,-74.524
-0.183,-1.222,-0.877,421.082,-176.086,-80.627
-0.192,-1.256,-0.504,418.823,-195.374,-83.496
-0.190,-1.275,-0.102,411.255,-214.417,-82.764
-0.175,-1.268,0.254,400.024,-222.351,-78.918
-0.124,-1.246,0.550,390.381,-213.074,-73.242
-0.015,-1.228,0.778,384.338,-192.505,-69.580
0.065,-1.209,0.961,375.061,-166.565,-63.049
0.103,-1.127,1.114,363.770,-143.921,-53.284
0.152,-1.095,1.355,354.736,-131.653,-44.678
0.207,-1.043,1.582,340.393,-125.122,-34.668
0.200,-0.956,1.714,318.726,-115.295,-25.452
0.239,-0.912,1.770,293.701,-101.746,-17.944
0.293,-0.923,1.719,267.944,-85.754,-11.047
0.326,-0.946,1.598,243.530,-69.641,-3.662
0.332,-0.934,1.495,227.173,-56.213,3.906
0.342,-0.925,1.446,218.506,-47.607,8.728
0.339,-0.907,1.437,210.022,-44.250,12.512
0.318,-0.876,1.455,199.280,-44.250,16.907
0.301,-0.850,1.458,187.622,-42.542,20.203
0.292,-0.829,1.454,175.293,-37.476,22.827
0.295,-0.814,1.415,162.964,-30.457,25.635
0.287,-0.782,1.376,152.161,-23.682,27.588
0.263,-0.726,1.353,143.616,-16.724,29.724
0.274,-0.674,1.392,139.038,-11.841,29.541
0.288,-0.598,1.444,133.728,-10.559,29.175
0.306,-0.541,1.487,123.840,-10.132,27.954
0.330,-0.494,1.503,110.657,-8.301,26.123
0.346,-0.458,1.541,97.473,-6.165,24.658
0.394,-0.401,1.578,86.609,-5.737,23.499
0.433,-0.337,1.600,71.655,-4.517,22.888
0.480,-0.303,1.537,53.589,1.343,23.315
0.532,-0.288,1.420,37.964,11.353,24.048
0.527,-0.234,1.265,27.283,23.376,26.978
0.528,-0.172,1.151,22.766,31.616,27.588
0.527,-0.120,1.060,18.250,32.837,26.184
0.528,-0.081,0.985,11.902,29.724,23.682
0.559,-0.078,0.922,8.606,26.306,20.081
0.563,-0.062,0.869,6.470,25.269,18.127
0.563,-0.046,0.816,5.188,25.574,16.907
0.567,-0.027,0.783,2.991,23.865,15.747
0.568,0.004,0.770,-0.488,19.165,14.893
0.583,0.010,0.765,-2.563,15.869,12.329
0.591,0.014,0.770,-2.319,14.587,10.437
0.593,0.043,0.805,-1.404,11.536,9.094
0.596,0.061,0.861,-3.113,5.981,6.409
0.618,0.053,0.899,-7.080,1.831,3.052
0.653,0.033,0.887,-10.864,3.418,0.916
0.682,0.013,0.821,-11.841,11.536,1.343
0.665,0.038,0.735,-10.620,20.508,3.662
0.651,0.070,0.661,-8.667,25.146,5.127
0.645,0.092,0.607,-7.690,22.583,4.333
0.639,0.097,0.599,-8.240,13.550,2.319
0.660,0.085,0.619,-8.240,3.418,0.061
0.674,0.083,0.644,-7.080,-0.977,-0.671
0.677,0.091,0.654,-4.822,-0.305,0.061
0.677,0.094,0.646,-3.723,1.709,0.854
0.682,0.095,0.643,-3.052,2.563,1.160
0.689,0.091,0.651,-2.380,3.052,1.343
0.691,0.079,0.660,-2.625,2.991,1.099
0.688,0.065,0.683,-1.831,2.319,1.404
0.675,0.062,0.711,-0.183,2.197,2.319
0.656,0.064,0.730,0.732,2.136,2.747
0.638,0.062,0.747,1.465,1.343,2.136
0.636,0.060,0.777,2.380,0.549,0.610
0.647,0.049,0.797,1.526,0.061,-0.488
0.648,0.046,0.784,-1.221,1.526,0.061
0.641,0.052,0.756,-3.540,3.906,1.282
0.641,0.060,0.742,-4.456,5.127,1.892
0.646,0.052,0.729,-5.676,5.249,1.526
0.649,0.044,0.700,-7.019,5.554,0.977
0.646,0.041,0.666,-6.287,5.859,0.122
0.653,0.047,0.652,-4.272,4.517,-0.916
0.670,0.044,0.657,-2.747,2.686,-1.953
0.675,0.050,0.662,-1.587,1.953,-2.258
0.673,0.056,0.674,0.000,1.709,-2.380
0.677,0.053,0.690,0.366,0.671,-2.686
0.670,0.059,0.715,-0.549,-1.282,-2.197
0.670,0.058,0.751,-0.732,-2.319,-1.831
0.670,0.052,0.776,-1.892,-2.197,-1.282
0.677,0.057,0.792,-3.357,-1.221,-0.366
0.684,0.062,0.790,-4.089,1.038,0.488
0.680,0.064,0.766,-5.859,3.357,1.221
0.674,0.067,0.733,-7.019,3.845,1.099
0.674,0.058,0.708,-6.592,2.502,0.916
0.673,0.058,0.696,-5.859,0.610,0.610
0.665,0.056,0.697,-5.005,-0.122,0.366
0.672,0.049,0.690,-4.211,0.366,0.000
0.672,0.058,0.673,-4.700,1.160,0.793
0.667,0.069,0.658,-4.822,1.953,1.648
0.666,0.077,0.662,-3.723,2.014,1.892
0.666,0.087,0.688,-2.991,0.488,1.526
0.670,0.086,0.718,-3.601,-1.465,1.404
0.667,0.082,0.721,-4.944,-1.343,2.075
0.666,0.076,0.718,-5.066,0.610,2.502
0.664,0.074,0.715,-5.005,2.136,2.930
0.655,0.075,0.708,-5.188,2.258,3.174
0.647,0.068,0.694,-5.127,2.075,2.441
0.649,0.060,0.684,-4.272,1.648,1.343
0.651,0.065,0.685,-3.174,1.404,0.916
0.650,0.067,0.679,-2.747,1.465,0.610
0.649,0.072,0.681,-2.136,1.587,0.549
0.644,0.081,0.694,-1.404,1.465,0.488
0.648,0.082,0.721,-1.160,0.671,-0.305
0.651,0.078,0.743,-1.953,-0.549,-1.099
0.658,0.067,0.755,-3.174,-0.488,-1.099
0.425,-1.079,2.484,334.290,-146.790,-44.678
0.456,-1.002,2.582,302.429,-114.258,-33.386
0.466,-0.922,2.582,274.902,-83.557,-24.536
0.483,-0.861,2.550,249.817,-60.547,-18.005
0.497,-0.815,2.483,222.290,-46.326,-13.977
0.509,-0.786,2.376,192.444,-36.743,-9.033
0.508,-0.740,2.200,163.391,-26.917,-3.235
0.527,-0.728,1.992,139.160,-15.198,0.671
0.544,-0.720,1.756,119.873,-4.822,4.089
0.545,-0.678,1.534,104.858,1.526,7.568
0.535,-0.608,1.364,94.788,4.517,9.033
0.538,-0.534,1.244,88.440,3.662,6.958
0.572,-0.472,1.190,80.994,-1.587,3.906
0.580,-0.428,1.156,71.045,-6.897,2.258
0.603,-0.383,1.125,62.195,-9.277,0.854
0.611,-0.351,1.106,56.396,-8.179,0.793
0.619,-0.299,1.098,52.795,-4.211,2.563
0.614,-0.231,1.091,48.157,-0.671,4.944
0.611,-0.160,1.079,40.833,0.916,6.714
0.604,-0.099,1.057,32.532,0.732,7.385
0.599,-0.056,1.036,25.146,-0.610,6.714
0.612,0.000,1.007,19.226,-2.747,6.348
0.608,0.036,0.974,13.367,-4.028,6.287
0.606,0.066,0.911,10.010,-2.625,5.432
0.599,0.099,0.851,10.071,0.000,4.089
0.588,0.128,0.813,10.803,0.549,3.052
0.579,0.154,0.792,9.705,-2.136,1.404
0.565,0.172,0.784,6.531,-6.226,-0.610
0.571,0.180,0.801,4.578,-10.925,-3.113
0.589,0.176,0.834,3.296,-13.672,-5.188
0.600,0.172,0.853,1.404,-11.230,-5.249
0.599,0.169,0.842,-0.305,-5.432,-4.456
0.603,0.174,0.825,-1.648,-1.038,-3.418
0.600,0.180,0.810,-4.517,-0.183,-2.014
0.600,0.192,0.775,-8.179,-1.282,-0.977
0.601,0.185,0.736,-9.399,-1.343,-0.916
0.594,0.189,0.697,-8.972,-1.099,-0.488
0.578,0.206,0.677,-7.874,-2.258,-0.427
0.574,0.212,0.677,-6.104,-3.601,-1.221
0.579,0.213,0.674,-4.578,-3.418,-2.747
0.576,0.217,0.670,-3.113,-2.625,-3.906
0.592,0.214,0.671,-0.977,-2.869,-5.005
0.607,0.207,0.683,0.305,-3.113,-5.066
0.610,0.214,0.705,0.244,-3.418,-3.967
0.608,0.225,0.728,-0.549,-5.005,-3.113
0.600,0.249,0.738,-1.099,-7.141,-3.052
0.601,0.223,0.758,-2.380,-7.874,-2.808
0.591,0.224,0.755,-3.235,-7.385,-2.625
0.593,0.219,0.751,-2.502,-6.104,-2.869
0.593,0.210,0.751,-1.038,-4.028,-3.113
0.588,0.214,0.720,0.427,-0.732,-2.930
0.583,0.214,0.688,1.526,1.404,-2.625
0.583,0.222,0.676,2.014,1.038,-2.380
0.580,0.224,0.674,1.099,-0.793,-2.075
0.587,0.205,0.673,0.488,-1.770,-1.953
0.590,0.200,0.690,1.282,-1.526,-1.282
0.579,0.206,0.703,2.136,-1.221,-0.916
0.575,0.198,0.706,3.052,-1.221,-1.831
0.578,0.189,0.714,4.089,-2.197,-3.113
0.585,0.175,0.733,5.005,-4.150,-4.028
0.591,0.164,0.767,4.700,-5.981,-3.723
0.591,0.155,0.776,3.235,-5.859,-2.686
0.596,0.156,0.765,2.747,-2.625,-1.831
0.600,0.164,0.755,3.357,0.732,-0.977
0.598,0.168,0.743,2.563,2.808,-0.183
0.596,0.172,0.730,1.648,3.418,0.244
0.590,0.173,0.724,1.343,2.258,0.427
0.590,0.170,0.730,2.258,0.244,-0.366
0.590,0.171,0.754,3.845,-1.404,-1.038
0.587,0.173,0.784,4.456,-2.930,-1.465
0.599,0.164,0.805,3.784,-3.967,-2.075
0.605,0.170,0.811,1.892,-4.272,-1.343
0.608,0.161,0.802,-0.244,-3.296,-0.488
0.619,0.153,0.779,-2.075,-0.671,0.244
0.620,0.152,0.748,-2.930,1.953,1.526
0.622,0.151,0.723,-2.930,3.540,2.563
0.618,0.155,0.709,-2.686,3.296,3.113
0.611,0.164,0.704,-2.258,2.136,3.479
0.609,0.164,0.703,-1.404,1.465,2.808
0.609,0.170,0.705,-0.488,1.221,2.197
0.606,0.172,0.716,0.671,0.671,1.709
0.606,0.170,0.725,1.465,0.122,1.038
0.604,0.161,0.741,2.319,0.122,0.549
0.596,0.164,0.763,2.075,-0.488,1.404
0.590,0.162,0.790,1.282,-1.343,2.014
0.592,0.158,0.809,0.305,-1.038,2.563
0.588,0.164,0.808,-1.343,0.610,3.784
0.584,0.165,0.793,-2.502,2.686,4.272
0.583,0.164,0.774,-3.052,3.601,4.211
0.586,0.168,0.762,-3.967,3.052,4.456
0.593,0.170,0.744,-4.883,2.869,4.578
0.590,0.172,0.718,-5.066,3.784,4.761
0.590,0.175,0.684,-3.479,4.761,4.211
0.596,0.175,0.669,-1.709,3.845,3.174
0.603,0.177,0.674,-0.305,1.526,2.319
0.607,0.182,0.691,0.671,-0.549,1.709
0.609,0.183,0.714,0.977,-1.831,1.221
0.618,0.184,0.744,0.610,-3.052,1.282
0.619,0.190,0.764,-0.793,-3.052,2.380
0.612,0.188,0.766,-2.014,-1.892,3.052
0.608,0.188,0.765,-2.258,-0.366,3.296
0.606,0.185,0.765,-2.625,0.366,3.662
0.609,0.180,0.765,-3.418,0.122,3.662
0.607,0.181,0.757,-3.479,0.610,3.906
0.607,0.181,0.737,-2.808,2.258,3.662
0.609,0.182,0.709,-2.075,3.052,3.174
0.609,0.185,0.691,-1.526,2.197,2.258
0.615,0.184,0.681,-0.244,1.099,1.587
0.615,0.187,0.675,0.366,0.305,1.160
0.612,0.185,0.676,0.916,-0.427,1.221
0.603,0.193,0.693,1.587,-1.648,1.160
0.602,0.186,0.724,2.075,-3.418,0.610
0.605,0.182,0.758,1.282,-5.249,0.488
0.600,0.189,0.779,0.000,-5.554,1.343
0.598,0.182,0.792,-0.366,-4.150,1.648
0.591,0.185,0.799,-0.244,-1.831,2.380
0.581,0.192,0.799,-0.610,-0.366,2.747
0.583,0.180,0.795,-1.404,-0.061,2.319
0.586,0.171,0.777,-2.930,0.488,2.747
0.499,0.437,-2.782,112.183,3.174,-11.108
0.444,0.404,-2.891,140.320,3.601,-10.071
0.330,0.379,-2.975,167.908,6.775,-8.667
0.219,0.294,-3.072,196.045,13.123,-11.658
0.089,0.214,-3.192,224.304,19.653,-19.592
-0.029,0.070,-3.300,251.709,22.278,-29.602
-0.148,-0.094,-3.322,280.884,18.616,-43.884
-0.252,-0.271,-3.283,308.838,7.019,-59.753
-0.323,-0.489,-3.174,331.116,-11.292,-75.256
-0.379,-0.688,-3.024,349.060,-35.522,-86.060
-0.431,-0.851,-2.823,366.333,-60.181,-94.971
-0.461,-0.981,-2.580,385.986,-81.848,-104.431
-0.474,-1.092,-2.275,406.067,-103.760,-115.662
-0.474,-1.228,-1.875,419.556,-131.104,-125.916
-0.466,-1.332,-1.472,423.157,-160.461,-130.798
-0.452,-1.397,-1.050,422.852,-185.486,-131.653
-0.391,-1.426,-0.539,425.903,-211.060,-131.775
-0.286,-1.444,0.069,427.368,-239.136,-131.348
-0.195,-1.423,0.790,423.828,-262.024,-126.038
-0.100,-1.265,1.523,415.955,-265.442,-113.953
-0.030,-1.102,2.125,399.475,-245.300,-101.135
0.006,-0.927,2.418,369.385,-205.872,-89.783
0.051,-0.757,2.465,333.679,-160.889,-82.825
0.146,-0.684,2.489,306.641,-131.531,-80.872
0.214,-0.632,2.538,281.250,-119.263,-77.332
0.242,-0.582,2.531,250.793,-106.323,-70.251
0.273,-0.556,2.432,219.177,-90.454,-63.782
0.305,-0.583,2.179,185.791,-69.519,-57.129
0.336,-0.639,1.824,155.701,-46.021,-49.988
0.374,-0.667,1.451,134.399,-26.367,-43.518
0.399,-0.682,1.098,121.033,-11.719,-38.818
0.437,-0.708,0.834,114.136,-8.118,-35.767
0.475,-0.734,0.680,111.084,-16.907,-33.569
0.504,-0.731,0.667,110.535,-31.982,-30.640
0.539,-0.714,0.814,114.014,-45.776,-28.625
0.574,-0.710,1.014,117.249,-52.551,-25.757
0.609,-0.653,1.206,116.394,-50.415,-18.005
0.602,-0.566,1.362,110.168,-41.504,-6.531
0.591,-0.495,1.455,100.281,-28.198,2.563
0.592,-0.419,1.514,91.248,-14.587,9.033
0.596,-0.346,1.537,79.590,-5.615,13.550
0.600,-0.283,1.510,64.514,-1.221,15.869
0.641,-0.252,1.478,51.147,1.892,17.273
0.661,-0.214,1.381,39.978,8.484,19.592
0.654,-0.164,1.226,31.128,18.982,23.071
0.634,-0.118,1.042,26.001,30.334,25.085
0.624,-0.068,0.882,24.231,37.048,25.940
0.613,-0.026,0.774,21.851,35.095,25.391
0.597,0.006,0.717,18.494,26.672,24.536
0.584,0.039,0.673,16.174,19.775,23.010
0.572,0.070,0.632,17.456,17.395,20.935
0.562,0.106,0.590,20.813,17.883,18.982
0.567,0.125,0.575,23.987,16.907,17.212
0.574,0.141,0.581,25.391,14.771,16.479
0.572,0.171,0.608,26.184,12.207,16.479
0.585,0.186,0.629,25.452,10.559,15.442
0.592,0.191,0.640,23.621,10.986,14.709
0.583,0.224,0.655,24.414,11.902,14.221
0.576,0.241,0.697,26.062,10.498,11.536
0.582,0.236,0.754,25.208,6.226,7.629
0.602,0.216,0.808,21.912,1.770,4.883
0.617,0.206,0.834,16.418,1.587,3.723
0.623,0.201,0.819,12.085,4.883,3.479
0.627,0.203,0.787,9.888,9.827,2.502
0.641,0.185,0.759,8.362,12.878,1.160
0.656,0.171,0.737,6.104,12.268,0.793
0.661,0.172,0.732,4.456,10.193,1.465
0.662,0.175,0.717,4.089,9.583,1.099
0.681,0.169,0.704,5.127,10.071,-0.244
0.697,0.165,0.692,5.859,9.338,-0.793
0.702,0.171,0.661,5.005,9.033,-0.244
0.699,0.174,0.626,5.310,9.399,-0.061
0.707,0.163,0.615,6.897,8.972,0.000
0.712,0.157,0.640,8.057,5.798,0.549
0.716,0.165,0.682,8.362,1.038,1.709
0.695,0.175,0.705,6.775,-1.221,2.441
0.701,0.170,0.742,6.287,-1.709,1.587
0.716,0.174,0.771,5.371,-1.160,0.977
0.721,0.177,0.766,1.282,0.793,2.136
0.719,0.176,0.718,-2.563,4.639,3.296
0.714,0.162,0.646,-3.113,9.521,3.906
0.702,0.171,0.588,-2.197,11.169,4.944
0.684,0.180,0.547,-0.427,8.240,5.432
0.673,0.184,0.533,2.197,3.906,4.578
0.666,0.184,0.549,6.592,0.977,3.174
0.664,0.186,0.608,10.193,-2.747,1.892
0.671,0.189,0.677,10.864,-7.507,1.221
0.669,0.193,0.713,8.545,-9.521,1.038
0.686,0.171,0.740,5.615,-7.263,1.221
0.691,0.154,0.729,3.296,-1.404,2.319
0.688,0.157,0.698,2.441,5.676,4.883
0.677,0.169,0.674,3.540,11.169,6.531
0.667,0.173,0.642,3.967,12.329,6.592
0.658,0.176,0.624,3.906,8.728,5.676
0.653,0.183,0.639,5.859,3.418,3.845
0.649,0.177,0.677,9.094,-0.671,0.549
0.651,0.159,0.722,10.010,-3.601,-2.014
0.664,0.159,0.743,7.568,-3.906,-3.235
0.678,0.162,0.751,3.357,-2.136,-2.625
0.690,0.150,0.730,-0.854,0.549,-1.831
0.704,0.156,0.710,-2.808,3.601,-0.183
0.703,0.171,0.686,-3.418,7.568,1.648
0.694,0.188,0.648,-3.357,10.010,2.136
0.690,0.193,0.642,-2.319,7.690,1.160
0.692,0.189,0.661,-1.404,2.075,-0.061
0.698,0.187,0.693,-0.549,-1.831,-0.793
0.703,0.174,0.709,-0.305,-1.526,-1.160
0.705,0.181,0.709,-0.732,0.549,-0.488
0.716,0.185,0.706,-1.953,1.465,-0.122
0.723,0.197,0.678,-4.028,2.747,0.488
0.724,0.200,0.652,-4.944,4.822,1.099
0.731,0.189,0.622,-4.944,5.432,1.160
0.719,0.198,0.591,-4.700,5.188,2.319
0.706,0.211,0.592,-2.380,4.089,2.686
0.701,0.207,0.628,0.732,0.916,0.854
0.703,0.192,0.674,1.770,-2.563,-0.671
0.706,0.183,0.701,1.892,-3.174,-0.244
0.710,0.181,0.703,1.770,-0.305,1.404
0.710,0.181,0.695,0.549,2.686,3.723
0.179,0.582,-3.272,49.927,-44.067,-29.297
0.240,0.561,-3.699,80.200,-63.660,-39.551
0.290,0.497,-4.000,114.136,-86.853,-50.354
0.276,0.352,-4.000,154.785,-106.689,-59.082
0.251,0.182,-4.000,206.848,-119.629,-65.491
0.235,-0.016,-4.000,262.390,-128.296,-67.932
0.251,-0.313,-4.000,312.012,-137.878,-67.810
0.235,-0.686,-4.000,354.614,-152.161,-68.848
0.225,-1.113,-4.000,392.639,-169.983,-69.092
0.154,-1.493,-3.976,427.979,-192.627,-65.308
0.028,-1.819,-3.507,460.266,-216.309,-61.401
-0.103,-2.057,-2.969,489.319,-232.422,-60.303
-0.221,-2.237,-2.440,515.381,-236.755,-60.608
-0.292,-2.381,-1.893,533.081,-236.938,-60.425
-0.357,-2.455,-1.363,530.762,-244.507,-55.969
-0.429,-2.458,-0.861,509.460,-260.803,-45.288
-0.507,-2.437,-0.399,481.995,-276.550,-33.569
-0.573,-2.403,0.044,461.731,-280.334,-24.841
-0.587,-2.350,0.502,453.796,-266.479,-19.348
-0.612,-2.227,0.958,452.393,-238.525,-14.404
-0.629,-2.068,1.456,453.186,-210.388,-12.207
-0.558,-1.929,1.894,447.144,-187.561,-13.611
-0.472,-1.854,2.148,418.945,-167.175,-14.160
-0.379,-1.796,2.150,373.596,-149.841,-9.949
-0.320,-1.752,2.117,333.557,-133.240,-3.052
-0.288,-1.650,2.193,311.401,-116.516,2.869
-0.243,-1.491,2.303,296.021,-99.976,4.883
-0.206,-1.395,2.376,272.339,-84.045,6.470
-0.174,-1.309,2.419,246.948,-72.754,4.883
-0.117,-1.240,2.396,218.140,-65.247,1.953
-0.083,-1.199,2.273,184.753,-57.556,1.587
-0.043,-1.146,2.095,156.616,-47.546,2.258
-0.016,-1.063,1.924,136.719,-35.583,3.906
-0.002,-0.964,1.770,119.995,-23.926,5.615
0.031,-0.862,1.629,102.478,-15.015,5.676
0.075,-0.768,1.489,84.290,-9.460,5.066
-0.325,-3.032,0.117,114.441,-0.671,7.263
1.756,-0.896,1.350,262.695,1.709,81.726
-0.125,0.179,2.492,69.275,29.297,86.548
0.223,-0.442,1.303,-37.415,78.796,-2.136
0.480,-0.481,0.671,-50.720,40.405,-4.822
0.402,-0.334,0.615,-19.165,-12.268,10.498
0.457,-0.207,0.909,18.433,-28.198,16.418
0.475,-0.101,1.110,33.325,-14.343,16.724
0.462,0.002,1.128,29.663,7.019,18.738
0.480,0.066,1.016,21.851,24.658,20.935
0.515,0.117,0.941,15.930,32.043,22.766
0.571,0.155,0.960,12.451,30.273,23.621
0.593,0.157,1.025,7.446,26.001,24.170
0.600,0.135,1.089,2.441,23.499,22.644
0.615,0.122,1.131,-0.122,21.729,19.531
0.647,0.104,1.139,-2.319,21.240,15.686
0.686,0.074,1.106,-5.432,23.071,12.634
0.703,0.064,1.042,-7.324,26.245,10.986
0.720,0.041,0.977,-8.850,28.625,8.789
0.732,0.011,0.898,-11.414,28.442,7.507
0.765,-0.008,0.833,-14.221,25.635,7.263
0.769,-0.007,0.776,-18.005,21.667,9.033
0.762,0.007,0.714,-20.386,19.470,10.071
0.742,0.023,0.639,-19.714,19.043,9.277
0.720,0.030,0.594,-16.785,17.273,7.874
0.720,0.024,0.611,-14.221,11.841,6.714
0.716,0.031,0.656,-13.306,4.822,7.141
0.706,0.035,0.672,-12.573,3.235,8.057
0.703,0.050,0.665,-9.949,7.263,8.484
0.687,0.074,0.661,-7.629,10.254,9.155
0.684,0.080,0.662,-8.301,9.705,9.521
0.682,0.083,0.658,-11.414,7.263,10.376
0.681,0.082,0.637,-13.062,7.263,11.292
0.678,0.087,0.615,-10.925,9.888,12.024
0.675,0.107,0.611,-6.287,12.512,12.512
0.658,0.129,0.613,-2.991,13.428,12.329
0.636,0.148,0.620,-2.136,10.193,11.047
0.639,0.146,0.648,-1.953,4.333,8.118
0.650,0.129,0.680,-2.686,-0.549,5.371
0.664,0.108,0.708,-3.723,-2.869,3.723
0.664,0.103,0.741,-5.493,-4.395,4.639
0.672,0.104,0.767,-7.202,-4.761,5.676
0.693,0.096,0.767,-7.629,-1.343,6.592
0.697,0.098,0.730,-7.812,4.761,8.240
0.688,0.110,0.676,-7.507,10.010,9.827
0.684,0.126,0.631,-6.409,11.414,10.498
0.678,0.134,0.601,-5.310,8.728,10.315
0.675,0.136,0.599,-4.211,4.089,9.705
0.668,0.130,0.600,-3.174,1.099,8.118
0.668,0.130,0.601,-1.953,-0.427,6.958
0.669,0.128,0.607,-1.404,-1.648,6.653
0.670,0.119,0.614,-0.854,-2.014,6.653
0.658,0.127,0.644,1.099,-2.197,7.141
0.651,0.140,0.698,2.808,-3.967,6.531
0.646,0.145,0.754,2.441,-6.409,5.554
0.643,0.137,0.803,0.549,-8.118,4.822
0.655,0.122,0.842,-1.770,-8.850,4.333
0.646,0.130,0.833,-4.333,-6.592,5.188
0.650,0.126,0.803,-5.676,-2.563,5.615
0.657,0.113,0.757,-6.348,1.160,5.127
0.662,0.110,0.719,-7.568,1.709,5.310
0.663,0.109,0.687,-8.850,0.671,5.920
0.666,0.116,0.659,-7.812,1.282,6.042
0.668,0.120,0.630,-5.310,3.601,5.859
0.659,0.130,0.603,-3.235,4.395,5.798
0.647,0.143,0.585,-1.892,2.441,5.066
0.650,0.140,0.602,0.061,-1.099,3.418
0.655,0.137,0.638,1.099,-4.333,1.953
0.669,0.129,0.678,1.343,-6.165,1.526
0.670,0.132,0.704,0.488,-5.920,2.686
0.665,0.140,0.718,-0.366,-4.639,3.967
0.659,0.146,0.741,-0.427,-3.601,4.578
0.661,0.143,0.770,-0.977,-3.723,4.578
0.665,0.131,0.781,-2.380,-2.747,4.761
0.656,0.133,0.764,-2.747,0.854,5.615
0.646,0.138,0.734,-1.709,4.578,5.859
0.642,0.141,0.703,-0.671,6.042,5.493
0.634,0.142,0.678,0.061,5.737,4.700
0.642,0.135,0.663,0.488,4.395,3.357
0.649,0.131,0.655,0.061,2.380,3.174
0.647,0.140,0.658,-0.977,0.122,3.540
0.652,0.139,0.672,-1.343,-1.526,2.808
0.652,0.134,0.694,-2.380,-3.235,2.319
-0.702,0.182,1.852,338.745,239.868,111.755
-0.803,0.254,1.888,372.192,271.362,146.667
-0.904,0.297,1.868,402.283,308.899,183.960
-1.079,0.341,1.761,433.411,349.060,223.816
-1.236,0.423,1.533,460.876,387.390,265.686
-1.482,0.504,1.344,481.628,406.372,311.096
-1.484,0.491,1.007,497.437,423.096,361.267
-1.397,0.565,0.636,503.052,444.092,410.522
-1.304,0.689,0.250,497.681,454.102,449.463
-1.238,0.770,0.074,487.244,446.655,473.572
-1.206,0.726,0.097,476.318,425.842,488.159
-1.287,0.763,0.110,464.783,405.762,498.718
-1.397,0.845,-0.030,454.346,398.804,512.939
-1.424,0.953,-0.194,452.942,399.475,534.119
-1.442,1.086,-0.397,454.163,396.729,552.429
-1.483,1.267,-0.662,440.979,388.733,562.500
-1.534,1.489,-0.997,408.203,377.197,561.340
-1.461,1.752,-1.375,366.272,368.469,552.856
-1.260,2.019,-1.839,325.073,361.572,534.668
-0.983,2.219,-2.167,280.090,341.614,500.732
-0.711,2.413,-2.524,224.609,307.312,453.369
-0.494,2.515,-2.666,158.752,265.320,389.709
-0.414,2.406,-2.414,88.074,209.839,312.012
-0.542,2.194,-1.961,30.029,156.494,235.229
-0.657,1.865,-1.382,-7.202,117.798,166.199
-0.849,1.569,-0.876,-22.339,89.966,112.122
-1.054,1.354,-0.517,-17.090,81.299,81.116
-1.123,1.239,-0.485,-0.793,95.703,70.557
-1.077,1.231,-0.694,20.508,114.868,71.960
-0.987,1.321,-1.042,37.170,122.009,74.951
-0.846,1.407,-1.382,38.940,117.554,72.754
-0.653,1.416,-1.604,27.710,104.736,63.171
-0.457,1.377,-1.696,11.169,84.473,47.363
-0.343,1.281,-1.678,-6.592,59.875,27.771
-0.297,1.122,-1.533,-20.203,32.471,7.874
-0.273,0.924,-1.335,-25.391,8.545,-7.996
-0.238,0.707,-1.126,-25.757,-6.958,-17.883
-0.174,0.521,-0.944,-24.353,-14.343,-17.944
-0.080,0.398,-0.800,-21.729,-15.747,-10.498
-0.001,0.376,-0.697,-18.494,-14.038,1.343
0.087,0.409,-0.656,-14.343,-11.047,14.587
0.184,0.451,-0.619,-9.277,-9.155,27.344
0.260,0.530,-0.583,-6.897,-7.568,38.208
0.306,0.622,-0.570,-7.568,-5.615,45.593
0.299,0.705,-0.536,-9.644,-3.784,49.011
0.238,0.789,-0.495,-10.803,-2.930,48.767
0.143,0.864,-0.476,-9.277,-0.427,45.593
0.054,0.919,-0.469,-4.700,3.723,40.039
0.006,0.951,-0.483,0.549,9.460,32.654
-0.034,0.933,-0.535,5.859,17.334,25.024
-0.048,0.862,-0.587,11.292,22.827,17.883
-0.045,0.787,-0.650,13.672,25.696,12.146
-0.054,0.743,-0.703,10.681,26.978,7.935
-0.056,0.708,-0.769,6.958,26.855,5.798
-0.061,0.692,-0.835,4.639,23.376,4.700
-0.061,0.676,-0.846,4.089,16.113,3.540
-0.060,0.662,-0.869,2.197,10.071,1.526
-0.088,0.650,-0.823,-0.793,4.089,0.061
-0.093,0.633,-0.779,-3.052,1.343,-0.061
-0.090,0.630,-0.744,-2.869,0.427,-0.244
-0.089,0.640,-0.744,-1.038,0.793,-0.793
-0.075,0.649,-0.736,1.282,1.404,-1.038
-0.062,0.665,-0.755,2.991,1.465,-0.854
-0.052,0.684,-0.769,4.333,-0.244,-0.305
-0.046,0.687,-0.762,4.822,-2.869,0.061
-0.033,0.674,-0.738,3.906,-4.700,0.854
-0.012,0.664,-0.699,1.709,-6.287,2.808
-0.006,0.682,-0.655,-0.671,-6.836,5.920
0.000,0.707,-0.629,-2.380,-5.615,8.972
0.005,0.749,-0.616,-2.686,-3.845,10.681
0.001,0.794,-0.633,-2.075,-0.854,10.376
0.000,0.821,-0.671,-0.671,2.563,8.301
0.004,0.815,-0.729,2.991,4.761,4.272
0.004,0.776,-0.753,6.775,4.333,-0.366
-0.024,0.730,-0.768,7.263,3.052,-3.601
-0.049,0.700,-0.774,5.249,1.465,-4.456
-0.061,0.683,-0.787,2.747,0.549,-3.906
-0.063,0.672,-0.783,0.305,-0.916,-2.502
-0.064,0.665,-0.758,-1.892,-2.136,-0.732
-0.052,0.663,-0.723,-3.357,-1.648,0.793
-0.028,0.671,-0.712,-3.601,-0.183,2.625
-0.014,0.695,-0.713,-2.380,0.366,3.906
-0.006,0.714,-0.712,-0.549,0.610,4.028
-0.010,0.725,-0.722,0.122,1.038,2.869
-0.012,0.730,-0.729,0.061,1.221,1.526
-0.016,0.733,-0.713,0.000,0.610,-0.061
-0.032,0.715,-0.684,0.427,-0.427,-1.465
-0.045,0.702,-0.665,0.732,0.305,-1.831
-0.040,0.692,-0.656,1.587,1.770,-1.526
-0.025,0.696,-0.659,2.747,3.296,-0.488
-0.012,0.704,-0.678,3.662,4.578,0.549
-0.016,0.713,-0.704,3.601,4.700,1.160
-0.022,0.717,-0.720,3.174,4.333,1.038
-0.031,0.723,-0.735,2.808,3.723,0.183
-0.052,0.715,-0.723,1.648,3.174,-0.122
-0.052,0.712,-0.735,0.977,2.808,-0.061
-0.061,0.712,-0.721,1.160,1.953,-0.305
-0.050,0.722,-0.711,0.488,1.953,-0.427
-0.049,0.739,-0.711,-0.732,2.991,-1.099
-0.050,0.741,-0.720,-0.366,3.052,-2.014
-0.049,0.722,-0.731,1.648,2.197,-3.113
-0.039,0.693,-0.727,2.441,0.977,-3.845
-0.041,0.670,-0.715,1.160,0.061,-3.540
-0.038,0.671,-0.700,-1.343,-0.122,-2.136
-0.041,0.693,-0.674,-3.601,0.122,0.000
-0.030,0.716,-0.672,-3.967,1.099,1.404
-0.027,0.735,-0.686,-2.991,1.892,2.136
-0.024,0.739,-0.703,-1.343,1.831,1.587
-0.017,0.724,-0.711,0.061,1.343,0.549
-0.010,0.714,-0.712,-0.183,0.977,-0.122
-0.019,0.708,-0.697,-1.282,0.732,0.183
-0.024,0.708,-0.680,-2.014,0.977,0.732
-0.027,0.715,-0.673,-1.831,1.953,1.587
-0.022,0.729,-0.685,-1.343,3.540,2.014
-0.025,0.745,-0.714,-0.488,4.761,1.892
-0.029,0.755,-0.737,0.610,4.578,0.977
-0.048,0.749,-0.757,1.526,3.296,-0.549
-0.066,0.732,-0.754,0.977,2.014,-2.197
-0.073,0.720,-0.760,0.122,1.038,-3.174
-0.290,0.308,2.522,215.088,237.854,-74.341
-0.453,0.320,2.653,252.258,273.254,-73.547
-0.628,0.309,2.671,295.349,311.646,-60.608
-0.706,0.303,2.508,338.806,346.375,-35.645
-0.723,0.293,2.221,378.845,370.605,-5.798
-0.654,0.211,1.920,415.466,376.160,25.940
-0.615,0.143,1.801,446.045,363.831,60.791
-0.641,0.073,1.763,461.914,345.947,95.642
-0.683,-0.015,1.772,461.304,334.167,130.249
-0.783,-0.119,1.705,452.209,339.905,169.617
-0.939,-0.116,1.573,434.814,365.234,213.074
-1.034,0.058,1.408,418.213,402.954,255.737
-1.008,0.224,1.173,417.297,438.293,299.683
-0.841,0.339,0.980,432.373,454.407,338.623
-0.889,0.450,1.015,445.007,453.735,360.046
-0.926,0.583,0.913,447.205,455.933,369.995
-1.014,0.641,0.664,453.003,460.754,383.484
-1.057,0.616,0.612,457.764,458.801,398.865
-1.103,0.585,0.382,448.792,466.614,413.391
-1.261,0.698,0.067,434.082,475.586,429.749
-1.463,0.861,-0.294,416.565,474.487,442.017
-1.585,1.079,-0.634,395.142,468.323,445.801
-1.540,1.180,-0.954,360.901,461.609,437.134
-1.464,1.187,-1.209,313.293,446.472,420.410
-1.378,1.135,-1.379,255.066,423.279,398.254
-1.408,1.046,-1.334,192.810,393.982,371.033
-1.647,1.003,-1.165,138.733,360.229,339.050
-1.875,0.896,-0.862,105.530,328.735,307.373
-1.998,0.815,-0.595,87.463,307.312,280.457
-2.120,0.792,-0.474,80.322,296.631,258.179
-2.266,0.882,-0.544,84.167,288.391,244.019
-2.297,1.007,-0.755,98.938,273.132,236.755
-2.195,1.144,-1.024,111.938,248.169,230.103
-2.295,1.416,-1.507,107.849,223.267,221.008
-1.924,2.029,-2.264,79.224,182.251,204.895
-1.781,2.313,-2.253,36.133,118.347,168.518
-1.539,2.281,-2.308,3.540,70.129,117.798
-1.532,2.068,-1.958,-32.532,17.761,60.120
-1.424,1.646,-1.527,-54.565,-22.583,16.357
-1.214,1.097,-1.164,-56.458,-43.396,-5.371
-0.834,0.750,-0.908,-50.354,-44.189,-13.428
-0.391,0.567,-0.819,-35.706,-32.837,-15.564
-0.095,0.520,-0.784,-20.508,-27.039,-15.076
0.144,0.526,-0.819,-7.263,-18.616,-14.160
0.124,0.584,-0.766,0.610,-11.536,-14.709
0.022,0.668,-0.758,3.723,-4.456,-14.709
-0.141,0.705,-0.815,8.484,3.662,-13.184
-0.303,0.735,-0.871,8.911,7.446,-10.559
-0.416,0.790,-0.904,6.531,11.230,-6.409
-0.444,0.833,-0.921,4.028,13.916,-3.662
-0.395,0.840,-0.884,1.282,15.686,-3.174
-0.316,0.811,-0.852,-0.549,15.930,-4.089
-0.242,0.740,-0.821,0.610,14.954,-5.005
-0.193,0.647,-0.777,2.991,12.085,-5.554
-0.131,0.593,-0.798,3.784,12.085,-4.578
-0.100,0.527,-0.698,0.854,13.550,-3.479
-0.113,0.487,-0.663,0.305,14.099,-1.526
-0.152,0.500,-0.683,2.930,13.733,1.587
-0.217,0.541,-0.746,5.676,13.245,4.761
-0.274,0.589,-0.781,7.324,13.000,6.653
-0.303,0.601,-0.795,9.521,11.597,7.629
-0.308,0.608,-0.758,9.216,9.583,6.714
-0.292,0.623,-0.714,6.897,8.423,5.188
-0.256,0.638,-0.703,4.822,7.385,2.991
-0.246,0.628,-0.701,4.517,5.371,1.160
-0.236,0.614,-0.697,3.723,3.601,0.183
-0.225,0.599,-0.697,1.465,2.869,-0.122
-0.216,0.585,-0.705,-0.854,2.258,0.244
-0.222,0.578,-0.716,-1.282,1.160,0.427
-0.238,0.594,-0.736,-0.305,-0.061,0.183
-0.260,0.626,-0.756,1.221,-1.465,-0.183
-0.245,0.630,-0.770,1.404,-1.953,-0.488
-0.231,0.615,-0.777,1.099,-2.869,-1.282
-0.226,0.604,-0.761,0.061,-2.808,-2.686
-0.225,0.606,-0.755,0.793,-1.709,-3.479
-0.234,0.613,-0.763,2.869,-0.916,-4.028
-0.252,0.627,-0.778,4.272,-0.427,-4.028
-0.274,0.634,-0.779,4.395,-0.671,-3.662
-0.278,0.645,-0.771,3.967,-1.221,-3.174
-0.266,0.646,-0.771,2.869,-0.549,-2.747
-0.254,0.646,-0.771,1.648,0.183,-2.747
-0.242,0.634,-0.767,1.831,0.427,-3.235
-0.232,0.621,-0.757,2.869,0.305,-3.906
-0.226,0.616,-0.752,3.418,0.854,-4.089
-0.223,0.618,-0.747,3.479,1.343,-4.089
-0.232,0.621,-0.746,2.563,1.770,-4.028
-0.250,0.577,-0.759,1.892,1.892,-3.845
-0.271,0.648,-0.772,-0.366,0.977,-2.747
-0.257,0.649,-0.737,-1.160,1.038,-1.526
-0.239,0.645,-0.718,0.305,1.343,-1.221
-0.236,0.635,-0.712,1.465,1.160,-0.366
-0.234,0.630,-0.729,1.953,0.916,0.916
-0.238,0.632,-0.734,2.380,0.488,1.587
-0.251,0.628,-0.742,2.136,-0.671,2.136
-0.262,0.620,-0.748,1.282,-1.343,2.563
-0.269,0.614,-0.747,0.732,-2.136,2.869
-0.266,0.621,-0.750,0.854,-2.563,3.113
-0.263,0.633,-0.755,0.977,-2.747,2.808
-0.263,0.632,-0.755,1.160,-2.930,2.014
-0.261,0.627,-0.758,1.648,-3.174,1.221
-0.248,0.621,-0.761,1.526,-3.418,0.427
-0.249,0.611,-0.757,1.343,-3.906,-0.061
-0.250,0.589,-0.724,1.221,-4.150,-0.488
-0.237,0.570,-0.707,2.197,-3.967,-0.732
-0.234,0.583,-0.714,2.808,-3.540,-0.366
-0.231,0.608,-0.741,2.991,-3.174,0.610
-0.233,0.625,-0.761,2.625,-2.625,1.099
-0.245,0.635,-0.766,1.831,-2.380,0.671
-0.254,0.639,-0.765,1.160,-2.441,0.061
-0.256,0.637,-0.755,0.916,-2.747,-0.549
-0.258,0.628,-0.739,1.099,-3.113,-1.465
-0.253,0.625,-0.746,1.343,-3.174,-1.892
-0.251,0.623,-0.760,1.221,-3.113,-1.709
-0.246,0.617,-0.766,1.343,-2.808,-1.709
-0.238,0.616,-0.761,1.404,-2.502,-2.014
-0.231,0.619,-0.756,1.648,-2.258,-1.709
-0.219,0.622,-0.754,1.404,-2.197,-1.343
-0.215,0.625,-0.750,0.671,-2.197,-1.221
-0.224,0.627,-0.745,0.305,-2.319,-1.099
-0.047,0.722,2.095,30.762,2.808,-66.345
-0.063,0.716,2.122,50.293,19.836,-70.190
-0.096,0.697,2.150,73.730,34.973,-73.608
-0.159,0.664,2.189,95.520,49.561,-76.050
-0.225,0.631,2.255,114.014,65.247,-75.195
-0.291,0.644,2.317,129.089,85.388,-70.313
-0.359,0.703,2.322,144.226,111.755,-64.392
-0.468,0.790,2.343,162.598,138.245,-57.983
-0.502,0.917,2.393,178.955,167.664,-51.331
-0.584,1.000,2.409,196.350,197.754,-50.537
-0.685,1.058,2.349,224.854,223.755,-49.316
-0.750,1.035,2.343,259.216,250.061,-44.250
-0.794,1.068,2.245,290.039,285.095,-34.058
-0.843,1.129,2.050,318.970,324.036,-18.799
-0.844,1.133,1.856,339.966,358.948,-4.456
-0.907,1.098,1.812,345.459,388.855,2.563
-0.961,0.978,1.750,342.712,423.523,3.662
-1.038,0.876,1.656,341.248,464.966,5.554
-1.203,0.873,1.499,346.863,501.465,10.803
-1.331,0.880,1.415,364.075,528.870,20.752
-1.371,0.827,1.238,392.639,551.208,39.246
-1.435,0.730,0.912,429.138,570.251,63.782
-1.565,0.711,0.542,465.515,581.970,88.501
-1.849,0.827,0.213,497.437,585.327,114.380
-1.958,0.865,-0.167,531.677,587.646,145.996
-1.849,0.852,-0.437,576.355,578.552,182.068
-1.739,0.850,-0.778,615.784,545.166,210.754
-1.685,0.789,-0.972,632.507,496.277,231.567
-1.658,0.647,-1.042,627.319,445.862,254.150
-1.703,0.544,-1.055,606.506,406.067,280.396
-1.804,0.508,-1.053,570.557,383.118,309.204
-1.881,0.547,-1.121,521.484,373.230,338.806
-1.813,0.606,-1.169,466.064,371.155,365.173
-1.719,0.690,-1.211,408.752,372.253,387.207
-1.643,0.754,-1.195,352.295,367.371,401.001
-1.516,0.849,-1.180,301.086,356.812,407.837
-1.467,1.026,-1.182,259.460,346.313,406.067
-1.380,1.267,-1.208,225.403,336.426,390.625
-1.286,1.478,-1.270,197.876,312.195,366.943
-1.190,1.631,-1.287,177.612,281.189,340.149
-1.108,1.703,-1.332,159.302,251.343,307.312
-1.098,1.746,-1.333,137.329,225.586,267.700
-1.127,1.809,-1.265,111.938,201.965,225.525
-1.177,1.851,-1.224,87.341,180.115,184.326
-1.196,1.887,-1.287,69.092,157.776,146.851
-1.266,2.016,-1.580,55.115,128.845,113.037
-1.249,2.135,-1.801,32.654,87.341,79.346
-1.170,2.089,-1.894,15.808,38.757,49.072
-1.172,1.845,-1.895,-2.502,-10.315,18.250
-0.958,1.465,-1.628,-20.874,-22.339,-2.747
-0.764,1.177,-1.333,-42.419,-19.836,-8.789
-0.510,0.939,-0.954,-58.044,-12.146,-14.771
-0.209,0.741,-0.743,-58.228,-4.089,-15.808
-0.060,0.636,-0.574,-47.485,-6.287,-14.832
0.007,0.576,-0.482,-28.931,-9.399,-13.184
0.065,0.554,-0.528,-8.179,-6.836,-10.254
0.116,0.526,-0.696,7.629,0.793,-6.836
0.079,0.532,-0.846,15.442,7.263,-3.479
-0.040,0.590,-0.913,18.127,7.507,0.732
-0.166,0.661,-0.934,16.968,7.141,6.592
-0.248,0.755,-0.944,13.794,8.423,10.193
-0.291,0.846,-0.907,10.986,9.766,10.315
-0.300,0.853,-0.871,9.094,8.301,9.583
-0.270,0.805,-0.797,6.409,8.423,8.179
-0.210,0.745,-0.738,3.052,10.803,5.249
-0.141,0.678,-0.697,1.404,13.245,3.113
-0.108,0.608,-0.691,1.587,14.771,1.831
-0.100,0.546,-0.667,3.479,13.855,1.160
-0.116,0.529,-0.666,4.578,13.306,2.441
-0.133,0.555,-0.680,4.883,12.573,4.761
-0.137,0.583,-0.710,5.249,11.475,6.592
-0.154,0.603,-0.729,4.089,9.583,6.897
-0.177,0.617,-0.719,2.197,7.202,6.104
-0.203,0.623,-0.708,0.061,5.920,5.127
-0.224,0.636,-0.705,-1.648,5.615,3.845
-0.219,0.649,-0.722,-2.380,5.432,2.502
-0.218,0.643,-0.727,-1.831,4.028,1.465
-0.198,0.628,-0.750,-1.282,3.235,0.061
-0.182,0.614,-0.748,-0.427,1.526,-0.977
-0.169,0.610,-0.734,0.549,-0.244,-1.709
-0.160,0.621,-0.741,0.916,-1.221,-1.831
-0.159,0.628,-0.749,1.343,-2.808,-1.648
-0.156,0.628,-0.759,1.282,-3.967,-1.404
-0.161,0.622,-0.741,0.061,-4.395,-1.099
-0.167,0.631,-0.732,-1.038,-4.333,-1.038
-0.181,0.652,-0.727,-1.465,-3.723,-1.160
-0.198,0.673,-0.743,-1.160,-3.113,-1.770
-0.208,0.689,-0.777,-0.671,-2.441,-2.686
-0.208,0.685,-0.795,-0.122,-2.014,-3.357
-0.201,0.661,-0.803,-0.183,-1.953,-3.418
-0.188,0.636,-0.779,-0.244,-2.197,-3.174
-0.169,0.624,-0.764,-0.610,-2.258,-2.441
-0.157,0.621,-0.749,-0.610,-1.770,-1.831
-0.147,0.630,-0.747,-0.244,-0.671,-1.404
-0.152,0.641,-0.754,0.366,0.549,-1.465
-0.160,0.647,-0.760,1.404,0.977,-1.587
-0.181,0.633,-0.778,2.075,1.038,-1.160
-0.190,0.648,-0.779,2.136,0.183,-1.526
-0.212,0.652,-0.763,1.404,-0.305,-1.465
-0.207,0.659,-0.739,0.732,0.000,-1.648
-0.193,0.658,-0.742,0.732,1.038,-2.380
-0.182,0.655,-0.754,0.977,1.160,-2.991
-0.166,0.636,-0.753,2.319,0.183,-3.235
-0.164,0.616,-0.734,2.258,-1.038,-3.235
-0.157,0.623,-0.728,0.549,-0.977,-3.174
-0.157,0.637,-0.716,-1.770,-0.793,-2.686
-0.154,0.644,-0.725,-1.953,-0.061,-2.319
-0.157,0.649,-0.739,-1.892,-0.488,-2.441
-0.177,0.640,-0.753,-1.160,-1.465,-2.136
-0.191,0.639,-0.750,0.061,-2.808,-1.831
-0.193,0.644,-0.758,0.366,-3.418,-1.526
-0.193,0.652,-0.756,0.183,-3.723,-1.526
-0.192,0.655,-0.759,0.000,-3.418,-2.197
-0.182,0.648,-0.764,0.488,-2.747,-2.686
-0.179,0.645,-0.763,1.282,-2.808,-2.930
-0.172,0.649,-0.768,1.526,-2.625,-3.174
-0.170,0.653,-0.767,0.183,-2.258,-3.052
-0.161,0.661,-0.761,-1.221,-2.380,-2.930
-0.148,0.649,-0.741,-1.404,-2.625,-2.869
-0.253,0.608,2.107,11.230,70.129,-4.456
-0.350,0.751,2.288,16.418,76.294,-6.348
-0.444,0.861,2.442,29.602,87.952,-9.216
-0.536,0.931,2.551,50.171,111.511,-11.719
-0.586,1.040,2.735,73.120,147.095,-16.418
-0.603,1.121,2.785,97.717,195.557,-23.071
-0.716,1.153,2.687,128.113,249.878,-29.175
-0.825,1.134,2.631,163.330,301.331,-35.950
-0.886,1.028,2.549,193.481,351.746,-40.649
-0.948,0.926,2.468,224.304,400.024,-38.391
-1.048,0.837,2.300,259.583,449.768,-31.677
-1.147,0.723,2.063,292.725,497.314,-19.775
-1.244,0.669,1.860,324.768,534.851,4.150
-1.386,0.607,1.586,354.614,574.890,35.706
-1.664,0.619,1.286,381.409,619.690,70.374
-1.925,0.630,1.003,404.480,661.438,106.079
-2.039,0.599,0.857,424.072,692.810,138.611
-2.084,0.560,0.722,441.589,709.045,169.434
-2.200,0.604,0.511,463.074,711.182,204.346
-2.242,0.594,0.282,486.328,702.026,241.333
-2.137,0.559,-0.006,505.981,694.092,282.043
-2.099,0.586,-0.475,510.864,682.373,321.777
-1.942,0.769,-0.930,500.488,657.410,352.539
-1.852,0.917,-1.181,489.868,613.647,373.047
-1.869,0.917,-1.273,480.957,567.810,381.836
-1.714,0.847,-1.254,465.332,535.645,387.939
-1.588,0.738,-1.309,429.199,513.184,392.639
-1.644,0.736,-1.407,378.174,501.160,393.921
-1.490,0.863,-1.604,316.833,488.953,393.616
-1.229,0.932,-1.874,253.418,464.722,382.812
-1.011,0.855,-1.902,193.909,420.349,352.295
-0.995,0.690,-1.617,134.705,361.938,307.251
-1.179,0.565,-1.109,87.585,305.420,263.733
-1.489,0.469,-0.734,61.218,269.043,234.985
-1.783,0.551,-0.658,56.580,251.160,222.107
-1.948,0.773,-0.705,68.420,233.582,216.492
-1.994,1.051,-0.947,73.547,218.689,206.116
-1.964,1.284,-1.213,65.735,203.003,183.533
-1.979,1.469,-1.411,53.040,177.917,150.085
-1.897,1.563,-1.558,40.283,144.836,113.647
-1.719,1.590,-1.690,28.259,108.643,81.238
-1.551,1.599,-1.775,16.235,68.665,51.453
-1.297,1.362,-1.621,3.235,27.344,23.743
-1.066,1.150,-1.384,-10.803,-6.531,3.479
-0.781,0.947,-1.036,-29.358,-32.593,-6.958
-0.481,0.760,-0.775,-43.518,-39.124,-8.118
-0.225,0.630,-0.537,-49.805,-34.790,-4.517
-0.051,0.589,-0.430,-48.096,-26.855,1.221
0.079,0.622,-0.449,-38.269,-15.869,6.714
0.108,0.685,-0.538,-23.682,-4.578,10.071
0.047,0.777,-0.716,-10.071,5.554,10.193
-0.039,0.798,-0.831,0.977,12.024,6.836
-0.183,0.783,-0.970,6.653,16.479,3.052
-0.333,0.806,-1.024,6.714,15.747,-0.244
-0.442,0.813,-1.074,4.333,13.855,-2.502
-0.543,0.853,-1.025,-0.122,10.925,-3.967
-0.537,0.843,-0.976,-3.601,8.545,-5.188
-0.473,0.775,-0.906,-6.897,8.911,-6.104
-0.378,0.729,-0.863,-7.019,11.169,-5.249
-0.308,0.695,-0.805,-5.005,11.780,-4.211
-0.256,0.666,-0.799,-2.869,10.071,-4.211
-0.218,0.636,-0.784,-1.648,7.690,-5.005
-0.196,0.588,-0.753,-2.380,6.958,-6.165
-0.193,0.551,-0.701,-4.272,6.470,-6.775
-0.162,0.500,-0.654,-3.784,7.568,-6.531
-0.166,0.469,-0.619,-1.465,9.277,-5.981
-0.184,0.483,-0.645,0.610,11.719,-4.395
-0.198,0.534,-0.703,2.136,12.817,-2.808
-0.222,0.578,-0.742,4.089,10.864,-2.319
-0.267,0.606,-0.765,4.761,9.460,-3.418
-0.302,0.620,-0.760,2.869,7.263,-4.272
-0.318,0.620,-0.747,1.404,4.272,-4.639
-0.307,0.615,-0.746,0.854,2.197,-4.944
-0.311,0.611,-0.731,0.671,0.366,-5.005
-0.305,0.617,-0.705,0.916,-1.831,-4.822
-0.290,0.638,-0.697,0.854,-2.075,-4.883
-0.272,0.653,-0.723,1.343,-0.732,-5.432
-0.254,0.639,-0.748,2.319,-0.427,-5.798
-0.235,0.622,-0.751,2.502,-0.793,-6.042
-0.226,0.619,-0.752,1.648,-1.343,-5.676
-0.213,0.618,-0.744,0.671,-1.770,-4.700
-0.185,0.621,-0.732,-0.488,-1.526,-4.089
-0.258,0.645,-0.704,-2.014,-1.831,-3.357
-0.233,0.663,-0.741,-1.465,-1.404,-2.136
-0.264,0.653,-0.769,0.916,-1.038,-2.380
-0.284,0.636,-0.787,1.770,-1.160,-2.747
-0.294,0.619,-0.806,1.770,-0.549,-2.869
-0.298,0.618,-0.803,1.343,-0.183,-3.113
-0.278,0.617,-0.786,1.831,-0.488,-2.808
-0.260,0.612,-0.761,2.808,-1.221,-2.258
-0.234,0.607,-0.749,3.540,-1.404,-1.465
-0.217,0.616,-0.727,3.235,-0.977,-0.732
-0.223,0.641,-0.719,2.625,0.366,-1.770
-0.231,0.637,-0.721,3.052,2.014,-2.686
-0.254,0.627,-0.731,5.493,1.953,-2.930
-0.274,0.634,-0.747,5.798,1.953,-3.418
-0.283,0.644,-0.783,5.554,2.197,-3.784
-0.278,0.628,-0.775,5.005,0.732,-3.967
-0.275,0.609,-0.768,4.761,-0.549,-3.662
-0.261,0.612,-0.753,3.967,-1.465,-2.869
-0.239,0.619,-0.737,3.174,-1.709,-2.258
-0.226,0.618,-0.730,3.235,-1.831,-2.136
-0.224,0.613,-0.719,3.235,-1.648,-1.892
-0.221,0.615,-0.715,2.563,-0.977,-1.709
-0.231,0.620,-0.716,1.831,-0.427,-2.014
-0.247,0.625,-0.728,2.441,-0.671,-2.075
-0.260,0.632,-0.752,3.418,-0.732,-2.014
-0.280,0.639,-0.777,3.662,-0.671,-2.258
-0.262,0.634,-0.788,3.662,-1.282,-1.892
-0.249,0.636,-0.759,3.357,-2.136,-1.770
-0.244,0.612,-0.759,1.465,-2.380,-1.465
-0.246,0.626,-0.716,-1.526,-3.357,-0.488
-0.241,0.648,-0.707,-1.282,-3.296,1.221
-0.242,0.680,-0.710,0.122,-3.113,1.526
-0.248,0.678,-0.743,1.953,-2.258,0.183
-0.258,0.648,-0.772,3.357,-1.709,-1.831
-0.260,0.626,-0.778,3.723,-2.197,-2.441
-0.264,0.626,-0.755,3.296,-2.502,-1.221
-0.237,0.639,-0.740,1.892,-2.197,-0.610
-0.457,0.273,2.398,213.074,234.741,-24.780
-0.529,0.306,2.419,244.446,265.503,-11.353
-0.592,0.301,2.304,289.551,303.589,6.042
-0.706,0.346,2.157,328.918,345.154,29.785
-0.852,0.435,2.079,353.516,384.766,55.298
-1.037,0.497,2.076,373.901,417.664,82.947
-1.255,0.503,2.076,399.902,448.181,120.544
-1.392,0.596,1.939,430.481,484.497,168.152
-1.474,0.708,1.663,458.191,530.212,216.003
-1.512,0.794,1.169,481.995,571.960,257.629
-1.500,0.849,0.681,503.357,587.830,291.931
-1.457,0.964,0.295,518.616,580.017,319.641
-1.409,1.027,0.135,526.245,558.105,336.670
-1.454,1.030,0.109,529.358,529.297,346.191
-1.516,1.019,0.145,536.743,501.831,356.567
-1.645,1.046,0.060,542.664,491.028,367.615
-1.668,1.038,-0.181,540.771,487.305,379.761
-1.686,1.004,-0.477,530.334,478.210,392.517
-1.683,1.015,-0.717,504.578,460.388,401.978
-1.564,1.035,-1.029,463.318,443.176,408.875
-1.421,1.113,-1.303,410.217,425.720,408.508
-1.377,1.205,-1.656,357.849,416.016,398.682
-1.390,1.319,-1.869,304.749,401.672,380.920
-1.286,1.422,-1.996,243.286,364.624,353.943
-1.152,1.451,-1.974,180.603,324.158,317.627
-1.112,1.418,-1.795,126.404,285.461,273.193
-1.157,1.306,-1.469,88.196,248.657,223.328
-1.297,1.161,-1.084,68.665,214.661,176.941
-1.454,1.045,-0.804,63.843,189.514,145.569
-1.540,1.010,-0.617,68.176,175.110,128.967
-1.573,1.078,-0.641,73.303,170.227,120.605
-1.511,1.196,-0.797,75.806,167.480,116.699
-1.465,1.450,-1.187,73.181,158.630,113.464
-1.307,1.787,-1.659,61.768,130.432,103.516
-1.183,1.946,-2.000,50.659,87.402,83.801
-1.054,1.981,-2.069,28.076,48.584,54.077
-1.023,1.797,-1.772,-1.038,8.667,22.217
-0.989,1.495,-1.264,-26.062,-19.592,-0.244
-0.767,1.150,-0.876,-38.025,-16.968,-9.644
-0.508,0.919,-0.719,-33.264,-6.104,-12.573
-0.328,0.800,-0.613,-27.039,-10.315,-14.160
-0.123,0.722,-0.694,-14.587,-7.812,-12.756
0.044,0.666,-0.772,-1.099,-5.005,-11.108
0.125,0.629,-0.777,9.827,-3.052,-9.644
0.115,0.632,-0.771,14.404,-0.610,-7.080
0.041,0.660,-0.753,17.151,2.380,-4.333
-0.022,0.664,-0.767,18.921,4.578,-1.343
-0.099,0.675,-0.768,18.433,4.089,2.991
-0.153,0.692,-0.737,14.587,4.333,7.202
-0.184,0.749,-0.720,9.216,6.836,11.414
-0.214,0.775,-0.661,6.531,8.118,13.428
-0.222,0.784,-0.654,6.897,8.911,13.000
-0.204,0.772,-0.684,7.019,9.766,11.353
-0.190,0.745,-0.706,4.883,10.925,9.399
-0.173,0.695,-0.699,1.892,10.864,7.385
-0.149,0.678,-0.708,-1.648,8.972,5.493
-0.154,0.647,-0.690,-2.808,9.399,3.906
-0.165,0.614,-0.715,-2.991,7.080,1.831
-0.177,0.561,-0.708,-0.610,4.150,0.305
-0.196,0.535,-0.705,0.671,2.380,0.122
-0.190,0.560,-0.686,0.854,2.319,1.587
-0.183,0.605,-0.682,1.709,1.892,2.502
-0.195,0.642,-0.697,3.784,1.282,2.014
-0.216,0.668,-0.723,6.104,0.122,1.099
-0.217,0.690,-0.738,7.568,-1.343,-0.122
-0.233,0.723,-0.756,7.202,-2.075,-2.380
-0.214,0.722,-0.735,6.592,-2.686,-3.845
-0.190,0.711,-0.717,6.653,-3.601,-4.150
-0.169,0.700,-0.689,5.127,-3.113,-4.822
-0.149,0.704,-0.698,2.014,-3.235,-4.395
-0.132,0.691,-0.676,1.038,-2.625,-4.700
-0.141,0.673,-0.688,0.732,-1.892,-4.700
-0.163,0.650,-0.681,1.587,-2.380,-3.662
-0.165,0.660,-0.702,1.526,-2.197,-2.136
-0.164,0.681,-0.739,0.366,-0.916,-0.183
-0.167,0.700,-0.757,0.854,-1.404,1.038
-0.172,0.700,-0.740,1.770,-2.869,1.587
-0.179,0.695,-0.736,2.014,-3.357,1.404
-0.179,0.690,-0.734,1.709,-2.991,0.793
-0.186,0.688,-0.732,1.648,-2.502,0.122
-0.186,0.681,-0.732,2.136,-2.075,-0.549
-0.182,0.681,-0.726,2.686,-1.892,-1.038
-0.179,0.680,-0.716,2.625,-1.282,-1.526
-0.174,0.688,-0.717,1.648,0.427,-1.892
-0.164,0.680,-0.716,0.610,1.892,-1.831
-0.153,0.668,-0.710,1.099,1.526,-1.587
-0.153,0.657,-0.701,1.160,0.916,-1.282
-0.154,0.655,-0.698,0.122,0.793,-0.549
-0.160,0.665,-0.710,-0.183,0.793,0.244
-0.175,0.676,-0.710,0.916,0.122,0.610
-0.189,0.687,-0.718,1.221,-0.183,0.610
-0.192,0.684,-0.723,0.732,-0.122,0.488
-0.189,0.687,-0.735,0.366,0.000,0.244
-0.184,0.681,-0.729,0.427,0.000,-0.061
-0.178,0.682,-0.715,0.549,-0.427,-0.488
-0.172,0.688,-0.706,0.732,-0.793,-0.549
-0.170,0.696,-0.711,-0.183,-0.305,-0.977
-0.175,0.693,-0.712,-0.488,0.183,-1.404
-0.183,0.686,-0.713,-0.732,0.305,-1.892
-0.181,0.682,-0.716,-1.099,0.183,-2.258
-0.177,0.670,-0.720,-0.977,0.183,-1.587
-0.173,0.672,-0.722,-1.404,0.427,-1.099
-0.170,0.677,-0.723,-1.709,0.549,-0.549
-0.168,0.677,-0.725,-1.526,0.366,0.122
-0.174,0.677,-0.733,-1.099,-0.305,0.427
-0.183,0.672,-0.737,-0.244,-0.488,0.488
-0.187,0.665,-0.736,0.549,-0.793,0.488
-0.192,0.668,-0.735,0.854,-1.160,0.427
-0.192,0.671,-0.731,1.526,-1.343,0.671
-0.196,0.684,-0.740,2.441,-1.831,0.854
-0.192,0.690,-0.731,3.723,-2.686,0.549
-0.182,0.687,-0.719,3.784,-2.380,-0.305
-0.177,0.687,-0.714,2.625,-1.892,-0.854
-0.167,0.675,-0.710,1.343,-1.526,-1.099
-0.163,0.664,-0.704,1.526,-1.770,-1.160
-0.161,0.669,-0.701,2.319,-2.380,-0.671
-0.164,0.679,-0.708,2.441,-2.380,0.122
-0.172,0.685,-0.715,1.465,-2.075,0.488
-0.176,0.680,-0.722,0.732,-1.892,0.549
-0.125,0.578,2.165,10.986,-29.724,-33.325
-0.130,0.628,2.254,23.926,-14.160,-36.377
-0.126,0.710,2.326,36.194,6.042,-39.429
-0.130,0.789,2.318,51.575,27.344,-45.349
-0.186,0.839,2.314,71.838,45.227,-52.124
-0.245,0.865,2.326,94.116,60.181,-56.213
-0.283,0.933,2.389,114.868,74.707,-57.556
-0.343,0.932,2.426,135.010,91.675,-60.608
-0.411,0.889,2.475,154.236,112.915,-65.063
-0.479,0.895,2.521,167.908,143.921,-69.336
-0.552,0.948,2.461,176.392,188.171,-75.378
-0.683,0.934,2.361,187.988,231.995,-82.458
-0.788,0.925,2.238,208.130,267.456,-84.351
-0.875,0.982,2.167,231.934,300.720,-78.735
-0.947,1.015,2.069,257.446,331.177,-68.604
-1.007,0.998,1.964,292.786,355.957,-54.016
-1.100,1.015,1.888,334.473,378.662,-36.804
-1.175,1.078,1.794,372.009,406.860,-18.982
-1.266,1.088,1.612,406.067,434.631,-1.892
-1.424,1.018,1.409,439.270,454.895,18.738
-1.616,0.985,1.156,467.773,477.966,45.898
-1.856,1.010,0.939,485.596,512.634,73.608
-1.943,0.995,0.691,493.652,550.110,100.586
-2.028,1.012,0.330,503.662,580.261,131.531
-2.088,1.021,-0.056,517.090,589.844,163.391
-1.987,1.011,-0.351,530.457,580.017,193.909
-1.870,0.861,-0.508,543.396,555.969,224.121
-1.821,0.819,-0.653,549.011,523.865,253.662
-1.819,0.848,-0.729,538.879,490.601,276.123
-1.799,0.804,-0.724,525.513,459.045,290.771
-1.775,0.763,-0.714,513.794,434.753,307.983
-1.737,0.752,-0.673,499.146,418.030,326.965
-1.798,0.761,-0.665,478.271,407.959,341.064
-1.863,0.824,-0.750,452.209,403.503,351.929
-1.907,0.957,-0.793,424.927,401.123,361.084
-1.914,1.084,-0.860,398.560,398.376,367.615
-1.815,1.174,-0.968,369.568,395.081,369.812
-1.658,1.270,-1.097,337.219,394.165,369.568
-1.485,1.415,-1.268,304.993,393.127,366.760
-1.300,1.575,-1.526,278.809,386.292,361.572
-1.062,1.657,-1.779,254.272,370.422,348.633
-0.819,1.773,-1.979,222.717,343.811,321.655
-0.664,1.873,-2.166,180.664,309.753,281.799
-0.578,1.930,-2.102,134.949,269.958,234.985
-0.840,2.347,-2.454,86.060,226.318,185.303
-1.168,2.372,-2.568,33.691,154.663,131.958
-1.352,2.341,-2.185,18.311,58.777,67.627
-1.693,2.090,-2.109,26.733,-9.277,1.892
-1.982,1.752,-1.900,-1.892,-52.917,-26.672
-2.157,1.516,-1.546,-36.133,-70.374,-35.522
-1.659,1.315,-1.042,-54.932,-45.105,-34.790
-1.204,1.086,-0.984,-51.575,-15.320,-28.381
-0.512,0.921,-0.869,-33.752,18.616,-17.761
-0.037,0.732,-0.802,-15.137,11.353,-7.568
0.346,0.603,-0.851,0.732,5.920,-1.160
0.559,0.479,-0.788,10.132,8.789,1.404
0.674,0.390,-0.804,13.794,15.991,0.916
0.596,0.314,-0.696,16.785,17.639,1.587
0.423,0.305,-0.610,20.752,15.564,4.883
0.224,0.391,-0.593,22.949,15.686,7.935
0.018,0.537,-0.656,24.475,16.602,9.644
-0.166,0.659,-0.770,26.855,14.832,9.460
